"","ID","Snellen_Denominator","Grip_Strength","Chest_Strength","Handness","Height","Weight","DomIPIP","TDScore","State","Trait","cue_image_1","cue_image_2","Face_Set_Code","Face_Type_Code_1","Face_Type_Code_2","Dominance_Score","cue_position_x_1","cue_position_x_2","target_position_x","conguruence","experimental_trials.thisN","experimental_trials.thisIndex","responsebutton.keys","responsebutton.corr","responsebutton.rt"
"1",1,30,120,105,1,NA,NA,44,15,24,39,3355,3355,1,3,1,3,-2,2,2,1,0,351,6,0,0.5000635
"2",1,30,120,105,1,NA,NA,44,15,24,39,9255,9255,1,2,1,2,2,-2,-2,0,1,726,6,1,0.5167056
"3",1,30,120,105,1,NA,NA,44,15,24,39,7599,7599,2,1,2,2,-2,2,2,1,2,705,5,1,0.6500338
"4",1,30,120,105,1,NA,NA,44,15,24,39,12555,12555,1,2,1,2,2,-2,2,0,3,788,5,1,0.5001514
"5",1,30,120,105,1,NA,NA,44,15,24,39,11599,11599,2,1,2,2,-2,2,2,1,4,769,5,1,0.4333771
"6",1,30,120,105,1,NA,NA,44,15,24,39,10099,10099,2,2,3,6,2,-2,-2,0,5,170,5,1,0.4332811
"7",1,30,120,105,1,NA,NA,44,15,24,39,999,999,2,1,2,2,2,-2,2,0,6,584,5,1,0.500028
"8",1,30,120,105,1,NA,NA,44,15,24,39,16299,16299,2,2,1,2,-2,2,-2,1,7,847,6,1,0.5333408
"9",1,30,120,105,1,NA,NA,44,15,24,39,3699,3699,2,3,2,6,-2,2,2,1,8,73,5,1,0.5000428
"10",1,30,120,105,1,NA,NA,44,15,24,39,12355,12355,1,3,2,6,-2,2,2,1,9,217,6,1,0.5333501
"11",1,30,120,105,1,NA,NA,44,15,24,39,7399,7399,2,2,1,2,2,-2,-2,0,10,702,6,1,0.4667356
"12",1,30,120,105,1,NA,NA,44,15,24,39,7299,7299,2,1,3,3,-2,2,-2,1,11,417,5,1,0.3333507
"13",1,30,120,105,1,NA,NA,44,15,24,39,2955,2955,1,2,3,6,2,-2,-2,0,12,54,5,1,0.3168007
"14",1,30,120,105,1,NA,NA,44,15,24,39,12999,12999,2,3,1,3,-2,2,2,1,13,515,5,1,0.4334413
"15",1,30,120,105,1,NA,NA,44,15,24,39,12799,12799,2,3,1,3,2,-2,2,0,14,510,6,1,0.5000251
"16",1,30,120,105,1,NA,NA,44,15,24,39,1699,1699,2,3,1,3,2,-2,2,0,15,310,5,1,0.4334983
"17",1,30,120,105,1,NA,NA,44,15,24,39,15099,15099,2,3,1,3,-2,2,2,1,16,551,6,1,0.4500398
"18",1,30,120,105,1,NA,NA,44,15,24,39,12199,12199,2,3,2,6,2,-2,2,0,17,212,5,1,0.4167658
"19",1,30,120,105,1,NA,NA,44,15,24,39,4999,4999,2,2,3,6,-2,2,-2,1,18,95,5,1,0.350154
"20",1,30,120,105,1,NA,NA,44,15,24,39,13899,13899,2,1,2,2,-2,2,2,1,19,817,6,1,0.4334195
"21",1,30,120,105,1,NA,NA,44,15,24,39,12599,12599,2,3,1,3,-2,2,2,1,20,507,6,1,0.5834394
"22",1,30,120,105,1,NA,NA,44,15,24,39,10799,10799,2,2,3,6,2,-2,-2,0,21,186,5,1,0.3333756
"23",1,30,120,105,1,NA,NA,44,15,24,39,6399,6399,2,2,1,2,-2,2,-2,1,22,683,6,1,0.4333771
"24",1,30,120,105,1,NA,NA,44,15,24,39,1899,1899,2,3,2,6,2,-2,2,0,23,32,5,1,0.5167227
"25",1,30,120,105,1,NA,NA,44,15,24,39,4199,4199,2,3,1,3,-2,2,2,1,24,367,5,1,0.5167269
"26",1,30,120,105,1,NA,NA,44,15,24,39,10699,10699,2,1,3,3,2,-2,-2,0,25,468,6,1,0.4833557
"27",1,30,120,105,1,NA,NA,44,15,24,39,15099,15099,2,2,1,2,-2,2,-2,1,26,835,6,1,0.6166441
"28",1,30,120,105,1,NA,NA,44,15,24,39,14699,14699,2,1,3,3,-2,2,-2,1,27,549,5,1,0.4167555
"29",1,30,120,105,1,NA,NA,44,15,24,39,11099,11099,2,2,3,6,-2,2,-2,1,28,195,6,1,0.4167671
"30",1,30,120,105,1,NA,NA,44,15,24,39,1799,1799,2,3,2,6,2,-2,2,0,29,28,6,1,0.4501335
"31",1,30,120,105,1,NA,NA,44,15,24,39,1699,1699,2,2,1,2,2,-2,-2,0,30,594,5,1,0.3500263
"32",1,30,120,105,1,NA,NA,44,15,24,39,13699,13699,2,1,3,3,-2,2,-2,1,31,529,5,1,0.3833632
"33",1,30,120,105,1,NA,NA,44,15,24,39,1799,1799,2,1,2,2,2,-2,2,0,32,596,6,1,0.3666444
"34",1,30,120,105,1,NA,NA,44,15,24,39,399,399,2,1,3,3,-2,2,-2,1,33,289,5,0,0.3000426
"35",1,30,120,105,1,NA,NA,44,15,24,39,15399,15399,2,2,1,2,2,-2,-2,0,34,838,6,1,0.4166465
"36",1,30,120,105,1,NA,NA,44,15,24,39,4599,4599,2,1,2,2,2,-2,2,0,35,656,6,1,0.4166331
"37",1,30,120,105,1,NA,NA,44,15,24,39,9199,9199,2,1,2,2,2,-2,2,0,36,724,5,1,0.4501048
"38",1,30,120,105,1,NA,NA,44,15,24,39,8499,8499,2,2,1,2,-2,2,-2,1,37,719,6,1,0.4001338
"39",1,30,120,105,1,NA,NA,44,15,24,39,12499,12499,2,2,1,2,2,-2,-2,0,38,786,5,1,0.4334262
"40",1,30,120,105,1,NA,NA,44,15,24,39,13299,13299,2,1,3,3,-2,2,-2,1,39,525,5,1,0.4333685
"41",1,30,120,105,1,NA,NA,44,15,24,39,4099,4099,2,2,1,2,2,-2,-2,0,40,646,6,1,0.4500541
"42",1,30,120,105,1,NA,NA,44,15,24,39,1855,1855,1,3,1,3,2,-2,2,0,41,314,5,1,0.4500451
"43",1,30,120,105,1,NA,NA,44,15,24,39,6199,6199,2,3,2,6,2,-2,2,0,42,108,6,1,0.4501317
"44",1,30,120,105,1,NA,NA,44,15,24,39,1855,1855,1,2,3,6,2,-2,-2,0,43,30,5,1,0.3500516
"45",1,30,120,105,1,NA,NA,44,15,24,39,1199,1199,2,3,2,6,2,-2,2,0,44,20,6,0,0.3333324
"46",1,30,120,105,1,NA,NA,44,15,24,39,199,199,2,1,3,3,2,-2,-2,0,45,284,6,1,0.4667953
"47",1,30,120,105,1,NA,NA,44,15,24,39,6199,6199,2,1,3,3,-2,2,-2,1,46,393,6,1,0.5166869
"48",1,30,120,105,1,NA,NA,44,15,24,39,13199,13199,2,1,3,3,2,-2,-2,0,47,520,6,1,0.4668187
"49",1,30,120,105,1,NA,NA,44,15,24,39,6355,6355,1,1,2,2,2,-2,2,0,48,680,5,1,0.5500441
"50",1,30,120,105,1,NA,NA,44,15,24,39,15399,15399,2,2,3,6,2,-2,-2,0,49,270,6,1,0.4500208
"51",1,30,120,105,1,NA,NA,44,15,24,39,9199,9199,2,1,3,3,-2,2,-2,1,50,441,5,1,0.4834713
"52",1,30,120,105,1,NA,NA,44,15,24,39,6999,6999,2,2,1,2,2,-2,-2,0,51,694,6,1,0.4000003
"53",1,30,120,105,1,NA,NA,44,15,24,39,2399,2399,2,2,3,6,2,-2,-2,0,52,42,6,1,0.4166929
"54",1,30,120,105,1,NA,NA,44,15,24,39,11799,11799,2,3,1,3,-2,2,2,1,53,491,5,1,0.4334581
"55",1,30,120,105,1,NA,NA,44,15,24,39,7299,7299,2,3,2,6,-2,2,2,1,54,133,5,1,0.4168015
"56",1,30,120,105,1,NA,NA,44,15,24,39,2799,2799,2,3,1,3,2,-2,2,0,55,334,5,1,0.4667851
"57",1,30,120,105,1,NA,NA,44,15,24,39,499,499,2,3,2,6,-2,2,2,1,56,9,5,1,0.4500341
"58",1,30,120,105,1,NA,NA,44,15,24,39,17255,17255,1,1,3,3,-2,2,-2,1,57,565,6,1,0.4500499
"59",1,30,120,105,1,NA,NA,44,15,24,39,2399,2399,2,3,1,3,2,-2,2,0,58,326,6,1,0.5501357
"60",1,30,120,105,1,NA,NA,44,15,24,39,1899,1899,2,3,2,6,-2,2,2,1,59,33,5,1,0.4334386
"61",1,30,120,105,1,NA,NA,44,15,24,39,5899,5899,2,1,3,3,2,-2,-2,0,60,388,6,1,0.4834167
"62",1,30,120,105,1,NA,NA,44,15,24,39,899,899,2,2,1,2,-2,2,-2,1,61,583,6,1,0.4506494
"63",1,30,120,105,1,NA,NA,44,15,24,39,10555,10555,1,1,3,3,2,-2,-2,0,62,464,6,1,0.4833766
"64",1,30,120,105,1,NA,NA,44,15,24,39,2999,2999,2,3,2,6,-2,2,2,1,63,57,5,1,0.4666479
"65",1,30,120,105,1,NA,NA,44,15,24,39,13699,13699,2,3,2,6,-2,2,2,1,64,245,5,1,0.4667009
"66",1,30,120,105,1,NA,NA,44,15,24,39,15799,15799,2,1,2,2,2,-2,2,0,65,840,6,0,0.5501364
"67",1,30,120,105,1,NA,NA,44,15,24,39,13055,13055,1,1,3,3,2,-2,-2,0,66,516,5,1,0.5000392
"68",1,30,120,105,1,NA,NA,44,15,24,39,8499,8499,2,3,1,3,2,-2,2,0,67,434,6,1,0.4834091
"69",1,30,120,105,1,NA,NA,44,15,24,39,7799,7799,2,1,3,3,-2,2,-2,1,68,425,5,1,0.4166962
"70",1,30,120,105,1,NA,NA,44,15,24,39,3599,3599,2,2,3,6,2,-2,-2,0,69,70,6,1,0.5167832
"71",1,30,120,105,1,NA,NA,44,15,24,39,6399,6399,2,2,1,2,2,-2,-2,0,70,682,6,1,0.4666968
"72",1,30,120,105,1,NA,NA,44,15,24,39,14355,14355,1,3,1,3,-2,2,2,1,71,543,5,1,0.4500113
"73",1,30,120,105,1,NA,NA,44,15,24,39,12555,12555,1,3,1,3,-2,2,-2,1,72,505,5,1,0.5000493
"74",1,30,120,105,1,NA,NA,44,15,24,39,10355,10355,1,1,3,3,2,-2,-2,0,73,460,6,1,0.4500286
"75",1,30,120,105,1,NA,NA,44,15,24,39,1099,1099,2,2,3,6,-2,2,-2,1,74,19,6,1,0.4833619
"76",1,30,120,105,1,NA,NA,44,15,24,39,11699,11699,2,2,1,2,2,-2,-2,0,75,770,6,1,0.5001873
"77",1,30,120,105,1,NA,NA,44,15,24,39,2999,2999,2,1,3,3,-2,2,-2,1,76,341,5,1,0.4500201
"78",1,30,120,105,1,NA,NA,44,15,24,39,9499,9499,2,2,3,6,-2,2,-2,1,77,163,5,1,0.4000237
"79",1,30,120,105,1,NA,NA,44,15,24,39,14699,14699,2,3,2,6,2,-2,2,0,78,264,5,1,0.4852888
"80",1,30,120,105,1,NA,NA,44,15,24,39,14355,14355,1,2,3,6,-2,2,-2,1,79,259,5,1,0.4334557
"81",1,30,120,105,1,NA,NA,44,15,24,39,10199,10199,2,3,1,3,2,-2,2,0,80,458,6,1,0.3850172
"82",1,30,120,105,1,NA,NA,44,15,24,39,14399,14399,2,3,2,6,-2,2,2,1,81,261,5,1,0.4500511
"83",1,30,120,105,1,NA,NA,44,15,24,39,15399,15399,2,2,1,2,-2,2,-2,1,82,839,6,1,0.4333593
"84",1,30,120,105,1,NA,NA,44,15,24,39,4299,4299,2,1,2,2,-2,2,2,1,83,653,6,1,0.6501256
"85",1,30,120,105,1,NA,NA,44,15,24,39,4099,4099,2,3,1,3,2,-2,2,0,84,362,6,1,0.5166816
"86",1,30,120,105,1,NA,NA,44,15,24,39,4155,4155,1,1,3,3,2,-2,-2,0,85,364,6,1,0.5191787
"87",1,30,120,105,1,NA,NA,44,15,24,39,3899,3899,2,1,2,2,2,-2,2,0,86,644,5,1,0.4334149
"88",1,30,120,105,1,NA,NA,44,15,24,39,5599,5599,2,2,3,6,-2,2,-2,1,87,99,5,1,0.4340201
"89",1,30,120,105,1,NA,NA,44,15,24,39,13199,13199,2,1,2,2,2,-2,2,0,88,804,6,1,0.4166547
"90",1,30,120,105,1,NA,NA,44,15,24,39,9399,9399,2,3,2,6,-2,2,2,1,89,161,6,1,0.4167112
"91",1,30,120,105,1,NA,NA,44,15,24,39,13199,13199,2,1,3,3,-2,2,-2,1,90,521,5,0,0.4167582
"92",1,30,120,105,1,NA,NA,44,15,24,39,6399,6399,2,3,1,3,-2,2,2,1,91,399,6,1,0.5015637
"93",1,30,120,105,1,NA,NA,44,15,24,39,12299,12299,2,3,1,3,-2,2,2,1,92,499,6,1,0.4166775
"94",1,30,120,105,1,NA,NA,44,15,24,39,1255,1255,1,2,1,2,-2,2,-2,1,93,591,6,1,0.4167632
"95",1,30,120,105,1,NA,NA,44,15,24,39,6199,6199,2,1,2,2,-2,2,2,1,94,677,6,1,0.3666772
"96",1,30,120,105,1,NA,NA,44,15,24,39,12155,12155,1,3,1,3,2,-2,2,0,95,494,5,1,0.4166669
"97",1,30,120,105,1,NA,NA,44,15,24,39,7099,7099,2,1,2,2,-2,2,2,1,96,697,5,1,0.402016
"98",1,30,120,105,1,NA,NA,44,15,24,39,4799,4799,2,2,1,2,2,-2,-2,0,97,658,5,1,0.3834706
"99",1,30,120,105,1,NA,NA,44,15,24,39,10799,10799,2,2,1,2,-2,2,-2,1,98,755,5,1,0.3500334
"100",1,30,120,105,1,NA,NA,44,15,24,39,1855,1855,1,2,3,6,-2,2,-2,1,99,31,5,1,0.4500269
"101",1,30,120,105,1,NA,NA,44,15,24,39,8399,8399,2,3,2,6,-2,2,2,1,100,149,5,1,0.4669396
"102",1,30,120,105,1,NA,NA,44,15,24,39,2699,2699,2,1,2,2,2,-2,2,0,101,616,6,1,0.416741
"103",1,30,120,105,1,NA,NA,44,15,24,39,4899,4899,2,3,2,6,-2,2,2,1,102,93,6,1,0.4333961
"104",1,30,120,105,1,NA,NA,44,15,24,39,5599,5599,2,2,3,6,2,-2,-2,0,103,98,5,1,0.383291
"105",1,30,120,105,1,NA,NA,44,15,24,39,1255,1255,1,3,1,3,2,-2,2,0,104,306,6,1,0.4000238
"106",1,30,120,105,1,NA,NA,44,15,24,39,7599,7599,2,1,3,3,-2,2,-2,1,105,421,5,1,0.4178432
"107",1,30,120,105,1,NA,NA,44,15,24,39,11599,11599,2,1,3,3,2,-2,-2,0,106,484,5,1,0.4167715
"108",1,30,120,105,1,NA,NA,44,15,24,39,6999,6999,2,3,1,3,2,-2,2,0,107,410,6,1,0.3332964
"109",1,30,120,105,1,NA,NA,44,15,24,39,13055,13055,1,3,2,6,2,-2,2,0,108,232,5,1,0.4500773
"110",1,30,120,105,1,NA,NA,44,15,24,39,7199,7199,2,3,1,3,2,-2,2,0,109,414,6,1,0.5499612
"111",1,30,120,105,1,NA,NA,44,15,24,39,4155,4155,1,3,2,6,2,-2,2,0,110,80,6,1,0.4517566
"112",1,30,120,105,1,NA,NA,44,15,24,39,13155,13155,1,3,1,3,-2,2,2,1,111,519,6,1,0.4000229
"113",1,30,120,105,1,NA,NA,44,15,24,39,3399,3399,2,3,2,6,-2,2,2,1,112,69,5,1,0.4833423
"114",1,30,120,105,1,NA,NA,44,15,24,39,3099,3099,2,2,1,2,-2,2,-2,1,113,627,6,1,0.4667103
"115",1,30,120,105,1,NA,NA,44,15,24,39,12799,12799,2,2,3,6,-2,2,-2,1,114,227,6,1,0.4500172
"116",1,30,120,105,1,NA,NA,44,15,24,39,2299,2299,2,1,2,2,2,-2,2,0,115,608,5,1,0.3834337
"117",1,30,120,105,1,NA,NA,44,15,24,39,4399,4399,2,2,1,2,2,-2,-2,0,116,654,5,1,0.3834566
"118",1,30,120,105,1,NA,NA,44,15,24,39,13255,13255,1,2,1,2,-2,2,-2,1,117,807,5,1,0.4667278
"119",1,30,120,105,1,NA,NA,44,15,24,39,10899,10899,2,2,3,6,-2,2,-2,1,118,191,6,1,0.4000037
"120",1,30,120,105,1,NA,NA,44,15,24,39,17255,17255,1,1,2,2,-2,2,2,1,119,849,6,1,0.5000232
"121",1,30,120,105,1,NA,NA,44,15,24,39,9255,9255,1,2,3,6,-2,2,-2,1,120,159,5,0,0.3667086
"122",1,30,120,105,1,NA,NA,44,15,24,39,12699,12699,2,1,2,2,-2,2,2,1,121,793,5,1,0.5167211
"123",1,30,120,105,1,NA,NA,44,15,24,39,7599,7599,2,3,2,6,2,-2,2,0,122,136,5,1,0.4667159
"124",1,30,120,105,1,NA,NA,44,15,24,39,499,499,2,1,2,2,2,-2,2,0,123,576,5,1,0.4334178
"125",1,30,120,105,1,NA,NA,44,15,24,39,5599,5599,2,2,1,2,2,-2,-2,0,124,666,5,1,0.5333639
"126",1,30,120,105,1,NA,NA,44,15,24,39,9599,9599,2,3,2,6,2,-2,2,0,125,164,6,1,0.4834394
"127",1,30,120,105,1,NA,NA,44,15,24,39,12499,12499,2,2,3,6,2,-2,-2,0,126,218,5,1,0.3833422
"128",1,30,120,105,1,NA,NA,44,15,24,39,299,299,2,2,3,6,-2,2,-2,1,127,3,5,1,0.4334282
"129",1,30,120,105,1,NA,NA,44,15,24,39,3099,3099,2,2,3,6,-2,2,-2,1,128,59,6,1,0.4666583
"130",1,30,120,105,1,NA,NA,44,15,24,39,14055,14055,1,3,1,3,-2,2,2,1,129,535,5,1,0.5834229
"131",1,30,120,105,1,NA,NA,44,15,24,39,13855,13855,1,2,3,6,-2,2,-2,1,130,247,6,1,0.4333789
"132",1,30,120,105,1,NA,NA,44,15,24,39,199,199,2,3,2,6,-2,2,2,1,131,1,6,1,0.3833607
"133",1,30,120,105,1,NA,NA,44,15,24,39,2599,2599,2,1,3,3,2,-2,-2,0,132,328,5,1,0.3666881
"134",1,30,120,105,1,NA,NA,44,15,24,39,10155,10155,1,1,3,3,2,-2,-2,0,133,456,5,1,0.4000425
"135",1,30,120,105,1,NA,NA,44,15,24,39,6855,6855,1,3,2,6,-2,2,2,1,134,121,6,1,0.3667794
"136",1,30,120,105,1,NA,NA,44,15,24,39,7999,7999,2,3,1,3,2,-2,2,0,135,426,6,1,0.3676122
"137",1,30,120,105,1,NA,NA,44,15,24,39,3099,3099,2,3,1,3,-2,2,2,1,136,343,6,1,0.4001296
"138",1,30,120,105,1,NA,NA,44,15,24,39,15799,15799,2,3,2,6,-2,2,2,1,137,273,5,1,0.4667983
"139",1,30,120,105,1,NA,NA,44,15,24,39,11099,11099,2,3,1,3,2,-2,2,0,138,478,6,1,0.4676088
"140",1,30,120,105,1,NA,NA,44,15,24,39,12499,12499,2,3,1,3,-2,2,2,1,139,503,5,1,0.4180423
"141",1,30,120,105,1,NA,NA,44,15,24,39,3199,3199,2,2,1,2,-2,2,-2,1,140,631,5,1,0.4167807
"142",1,30,120,105,1,NA,NA,44,15,24,39,6955,6955,1,1,3,3,-2,2,-2,1,141,409,5,1,0.3834047
"143",1,30,120,105,1,NA,NA,44,15,24,39,8199,8199,2,2,3,6,-2,2,-2,1,142,147,6,1,0.4667837
"144",1,30,120,105,1,NA,NA,44,15,24,39,15399,15399,2,2,3,6,-2,2,-2,1,143,271,6,1,0.4339908
"145",1,30,120,105,1,NA,NA,44,15,24,39,12555,12555,1,2,1,2,-2,2,2,1,144,789,5,1,0.4000278
"146",1,30,120,105,1,NA,NA,44,15,24,39,13255,13255,1,3,1,3,-2,2,2,1,145,523,5,1,0.4333956
"147",1,30,120,105,1,NA,NA,44,15,24,39,6855,6855,1,3,2,6,2,-2,2,0,146,120,6,1,0.4334075
"148",1,30,120,105,1,NA,NA,44,15,24,39,6955,6955,1,1,3,3,2,-2,-2,0,147,408,5,1,0.383448
"149",1,30,120,105,1,NA,NA,44,15,24,39,4099,4099,2,2,1,2,-2,2,-2,1,148,647,6,1,0.4667037
"150",1,30,120,105,1,NA,NA,44,15,24,39,10099,10099,2,3,1,3,2,-2,2,0,149,454,5,1,0.4666388
"151",1,30,120,105,1,NA,NA,44,15,24,39,13699,13699,2,1,2,2,-2,2,2,1,150,813,5,1,0.4001296
"152",1,30,120,105,1,NA,NA,44,15,24,39,10699,10699,2,3,2,6,2,-2,2,0,151,184,6,1,0.4854528
"153",1,30,120,105,1,NA,NA,44,15,24,39,1899,1899,2,1,2,2,-2,2,2,1,152,601,5,1,0.4343888
"154",1,30,120,105,1,NA,NA,44,15,24,39,499,499,2,3,2,6,2,-2,2,0,153,8,5,1,0.4167036
"155",1,30,120,105,1,NA,NA,44,15,24,39,2899,2899,2,3,2,6,-2,2,2,1,154,53,6,1,0.3667228
"156",1,30,120,105,1,NA,NA,44,15,24,39,3399,3399,2,3,2,6,2,-2,2,0,155,68,5,1,0.4500385
"157",1,30,120,105,1,NA,NA,44,15,24,39,8399,8399,2,1,2,2,-2,2,2,1,156,717,5,1,0.3836124
"158",1,30,120,105,1,NA,NA,44,15,24,39,5899,5899,2,3,2,6,2,-2,2,0,157,104,6,1,0.4333505
"159",1,30,120,105,1,NA,NA,44,15,24,39,15299,15299,2,1,3,3,2,-2,-2,0,158,552,5,1,0.416709
"160",1,30,120,105,1,NA,NA,44,15,24,39,7599,7599,2,3,2,6,-2,2,2,1,159,137,5,1,0.4837932
"161",1,30,120,105,1,NA,NA,44,15,24,39,799,799,2,3,2,6,2,-2,2,0,160,12,5,1,0.4500299
"162",1,30,120,105,1,NA,NA,44,15,24,39,10599,10599,2,3,1,3,-2,2,2,1,161,467,6,0,0.3833873
"163",1,30,120,105,1,NA,NA,44,15,24,39,5599,5599,2,2,1,2,-2,2,-2,1,162,667,5,1,0.4167365
"164",1,30,120,105,1,NA,NA,44,15,24,39,9399,9399,2,1,3,3,2,-2,-2,0,163,444,5,0,0.4167771
"165",1,30,120,105,1,NA,NA,44,15,24,39,11755,11755,1,3,2,6,-2,2,2,1,164,205,6,1,0.5000178
"166",1,30,120,105,1,NA,NA,44,15,24,39,16199,16199,2,1,3,3,-2,2,-2,1,165,561,5,1,0.3667993
"167",1,30,120,105,1,NA,NA,44,15,24,39,4199,4199,2,2,1,2,-2,2,-2,1,166,651,5,1,0.4500738
"168",1,30,120,105,1,NA,NA,44,15,24,39,10899,10899,2,2,3,6,2,-2,-2,0,167,190,6,1,0.4167657
"169",1,30,120,105,1,NA,NA,44,15,24,39,4299,4299,2,1,2,2,2,-2,2,0,168,652,6,1,0.3840768
"170",1,30,120,105,1,NA,NA,44,15,24,39,1399,1399,2,3,2,6,-2,2,2,1,169,25,6,1,0.4167638
"171",1,30,120,105,1,NA,NA,44,15,24,39,15399,15399,2,3,1,3,2,-2,2,0,170,554,6,1,0.4499855
"172",1,30,120,105,1,NA,NA,44,15,24,39,3299,3299,2,3,2,6,2,-2,2,0,171,64,6,1,0.4000382
"173",1,30,120,105,1,NA,NA,44,15,24,39,13855,13855,1,2,3,6,2,-2,-2,0,172,246,5,0,0.3499802
"174",1,30,120,105,1,NA,NA,44,15,24,39,16199,16199,2,1,2,2,-2,2,2,1,173,845,5,1,0.550052
"175",1,30,120,105,1,NA,NA,44,15,24,39,12155,12155,1,2,3,6,2,-2,-2,0,174,210,5,1,0.434778
"176",1,30,120,105,1,NA,NA,44,15,24,39,455,455,1,2,3,6,-2,2,-2,1,175,7,5,1,0.4168082
"177",1,30,120,105,1,NA,NA,44,15,24,39,12299,12299,2,2,3,6,-2,2,-2,1,176,215,6,1,0.4333829
"178",1,30,120,105,1,NA,NA,44,15,24,39,6855,6855,1,1,2,2,-2,2,2,1,177,689,6,1,0.4667878
"179",1,30,120,105,1,NA,NA,44,15,24,39,5699,5699,2,3,2,6,-2,2,2,1,178,101,6,1,0.4503545
"180",1,30,120,105,1,NA,NA,44,15,24,39,17355,17355,1,2,1,2,2,-2,-2,0,179,850,5,1,0.4167094
"181",1,30,120,105,1,NA,NA,44,15,24,39,10355,10355,1,3,2,6,-2,2,2,1,180,177,6,1,0.3667004
"182",1,30,120,105,1,NA,NA,44,15,24,39,8099,8099,2,1,3,3,2,-2,-2,0,181,428,5,1,0.3667815
"183",1,30,120,105,1,NA,NA,44,15,24,39,6099,6099,2,2,1,2,2,-2,-2,0,182,674,5,1,0.383397
"184",1,30,120,105,1,NA,NA,44,15,24,39,15799,15799,2,3,2,6,2,-2,2,0,183,272,6,0,0.3333855
"185",1,30,120,105,1,NA,NA,44,15,24,39,2599,2599,2,1,2,2,2,-2,2,0,184,612,5,1,0.5000193
"186",1,30,120,105,1,NA,NA,44,15,24,39,3299,3299,2,1,3,3,2,-2,-2,0,185,348,6,1,0.433331
"187",1,30,120,105,1,NA,NA,44,15,24,39,4299,4299,2,1,3,3,2,-2,-2,0,186,368,6,1,0.4667957
"188",1,30,120,105,1,NA,NA,44,15,24,39,9255,9255,1,3,1,3,-2,2,2,1,187,443,6,1,0.4500296
"189",1,30,120,105,1,NA,NA,44,15,24,39,14699,14699,2,1,2,2,2,-2,2,0,188,832,5,1,0.4833532
"190",1,30,120,105,1,NA,NA,44,15,24,39,10999,10999,2,3,2,6,2,-2,2,0,189,192,5,1,0.4334634
"191",1,30,120,105,1,NA,NA,44,15,24,39,8799,8799,2,2,1,2,-2,2,-2,1,190,723,6,1,0.4016486
"192",1,30,120,105,1,NA,NA,44,15,24,39,899,899,2,2,3,6,-2,2,-2,1,191,15,6,1,0.4501065
"193",1,30,120,105,1,NA,NA,44,15,24,39,6999,6999,2,2,3,6,-2,2,-2,1,192,127,6,1,0.4667289
"194",1,30,120,105,1,NA,NA,44,15,24,39,8199,8199,2,2,1,2,2,-2,-2,0,193,714,6,1,0.4500481
"195",1,30,120,105,1,NA,NA,44,15,24,39,4999,4999,2,2,3,6,2,-2,-2,0,194,94,5,1,0.3672654
"196",1,30,120,105,1,NA,NA,44,15,24,39,9255,9255,1,2,3,6,2,-2,-2,0,195,158,6,1,0.4333821
"197",1,30,120,105,1,NA,NA,44,15,24,39,13855,13855,1,3,1,3,2,-2,2,0,196,530,6,1,0.483407
"198",1,30,120,105,1,NA,NA,44,15,24,39,2999,2999,2,3,2,6,2,-2,2,0,197,56,5,1,0.4344252
"199",1,30,120,105,1,NA,NA,44,15,24,39,5899,5899,2,1,2,2,2,-2,2,0,198,672,5,0,0.4334075
"200",1,30,120,105,1,NA,NA,44,15,24,39,4599,4599,2,1,3,3,2,-2,-2,0,199,372,6,1,0.4500959
"201",1,30,120,105,1,NA,NA,44,15,24,39,12699,12699,2,3,2,6,2,-2,2,0,200,224,5,1,0.4333815
"202",1,30,120,105,1,NA,NA,44,15,24,39,2299,2299,2,3,2,6,-2,2,2,1,201,41,5,1,0.4501084
"203",1,30,120,105,1,NA,NA,44,15,24,39,6999,6999,2,2,3,6,2,-2,-2,0,202,126,6,1,0.4666867
"204",1,30,120,105,1,NA,NA,44,15,24,39,14499,14499,2,2,1,2,-2,2,-2,1,203,831,6,1,0.4013633
"205",1,30,120,105,1,NA,NA,44,15,24,39,9199,9199,2,1,2,2,-2,2,2,1,204,725,5,1,0.3834094
"206",1,30,120,105,1,NA,NA,44,15,24,39,2299,2299,2,1,2,2,-2,2,2,1,205,609,5,1,0.4667775
"207",1,30,120,105,1,NA,NA,44,15,24,39,14155,14155,1,1,3,3,-2,2,-2,1,206,537,6,1,0.4167661
"208",1,30,120,105,1,NA,NA,44,15,24,39,2999,2999,2,1,3,3,2,-2,-2,0,207,340,5,1,0.4001158
"209",1,30,120,105,1,NA,NA,44,15,24,39,9899,9899,2,3,2,6,2,-2,2,0,208,168,6,1,0.3666776
"210",1,30,120,105,1,NA,NA,44,15,24,39,12999,12999,2,3,1,3,2,-2,2,0,209,514,5,1,0.4333739
"211",1,30,120,105,1,NA,NA,44,15,24,39,8199,8199,2,3,1,3,-2,2,2,1,210,431,6,1,0.4167656
"212",1,30,120,105,1,NA,NA,44,15,24,39,7199,7199,2,3,1,3,-2,2,2,1,211,415,6,1,0.4500844
"213",1,30,120,105,1,NA,NA,44,15,24,39,8499,8499,2,2,3,6,-2,2,-2,1,212,151,6,1,0.4666708
"214",1,30,120,105,1,NA,NA,44,15,24,39,12699,12699,2,3,2,6,-2,2,2,1,213,225,5,1,0.416806
"215",1,30,120,105,1,NA,NA,44,15,24,39,10199,10199,2,2,1,2,-2,2,-2,1,214,743,6,1,0.4339069
"216",1,30,120,105,1,NA,NA,44,15,24,39,2399,2399,2,2,3,6,-2,2,-2,1,215,43,6,1,0.4167977
"217",1,30,120,105,1,NA,NA,44,15,24,39,15899,15899,2,3,1,3,-2,2,2,1,216,559,6,1,0.4834168
"218",1,30,120,105,1,NA,NA,44,15,24,39,7799,7799,2,1,2,2,2,-2,2,0,217,708,6,0,0.3510133
"219",1,30,120,105,1,NA,NA,44,15,24,39,7999,7999,2,3,1,3,-2,2,2,1,218,427,6,1,0.4666559
"220",1,30,120,105,1,NA,NA,44,15,24,39,3199,3199,2,2,3,6,-2,2,-2,1,219,63,5,1,0.4000509
"221",1,30,120,105,1,NA,NA,44,15,24,39,15299,15299,2,1,2,2,2,-2,2,0,220,836,5,1,0.6010254
"222",1,30,120,105,1,NA,NA,44,15,24,39,14299,14299,2,1,3,3,-2,2,-2,1,221,541,6,1,0.4000209
"223",1,30,120,105,1,NA,NA,44,15,24,39,6355,6355,1,3,2,6,-2,2,2,1,222,113,5,1,0.4334187
"224",1,30,120,105,1,NA,NA,44,15,24,39,7399,7399,2,2,1,2,-2,2,-2,1,223,703,6,1,0.4333871
"225",1,30,120,105,1,NA,NA,44,15,24,39,8099,8099,2,1,3,3,-2,2,-2,1,224,429,5,1,0.4167866
"226",1,30,120,105,1,NA,NA,44,15,24,39,10855,10855,1,1,2,2,-2,2,2,1,225,757,5,1,0.4500679
"227",1,30,120,105,1,NA,NA,44,15,24,39,15899,15899,2,2,3,6,2,-2,-2,0,226,274,6,1,0.4667325
"228",1,30,120,105,1,NA,NA,44,15,24,39,9499,9499,2,2,3,6,2,-2,-2,0,227,162,5,1,0.3667933
"229",1,30,120,105,1,NA,NA,44,15,24,39,13899,13899,2,3,2,6,2,-2,2,0,228,248,6,1,0.4500174
"230",1,30,120,105,1,NA,NA,44,15,24,39,15399,15399,2,3,1,3,-2,2,2,1,229,555,6,1,0.5017528
"231",1,30,120,105,1,NA,NA,44,15,24,39,12155,12155,1,2,1,2,2,-2,-2,0,230,778,5,1,0.4001463
"232",1,30,120,105,1,NA,NA,44,15,24,39,3799,3799,2,2,3,6,2,-2,-2,0,231,74,6,1,0.45003
"233",1,30,120,105,1,NA,NA,44,15,24,39,13499,13499,2,3,1,3,2,-2,2,0,232,526,6,1,0.4000065
"234",1,30,120,105,1,NA,NA,44,15,24,39,17355,17355,1,2,3,6,2,-2,-2,0,233,282,5,1,0.3999564
"235",1,30,120,105,1,NA,NA,44,15,24,39,11755,11755,1,1,3,3,-2,2,-2,1,234,489,6,1,0.4667157
"236",1,30,120,105,1,NA,NA,44,15,24,39,12499,12499,2,2,3,6,-2,2,-2,1,235,219,5,1,0.4001021
"237",1,30,120,105,1,NA,NA,44,15,24,39,7299,7299,2,1,3,3,2,-2,-2,0,236,416,5,1,0.4166279
"238",1,30,120,105,1,NA,NA,44,15,24,39,3355,3355,1,2,3,6,2,-2,-2,0,237,66,5,1,0.4177803
"239",1,30,120,105,1,NA,NA,44,15,24,39,1399,1399,2,1,3,3,2,-2,-2,0,238,308,6,1,0.4500212
"240",1,30,120,105,1,NA,NA,44,15,24,39,7099,7099,2,1,2,2,2,-2,2,0,239,696,5,1,0.4667826
"241",1,30,120,105,1,NA,NA,44,15,24,39,12299,12299,2,2,1,2,-2,2,-2,1,240,783,6,1,0.4000287
"242",1,30,120,105,1,NA,NA,44,15,24,39,12699,12699,2,1,3,3,-2,2,-2,1,241,509,5,1,0.3667108
"243",1,30,120,105,1,NA,NA,44,15,24,39,2699,2699,2,1,3,3,-2,2,-2,1,242,333,6,1,0.483388
"244",1,30,120,105,1,NA,NA,44,15,24,39,12555,12555,1,3,1,3,2,-2,-2,0,243,504,5,1,0.366704
"245",1,30,120,105,1,NA,NA,44,15,24,39,11599,11599,2,3,2,6,2,-2,2,0,244,200,5,1,0.6499954
"246",1,30,120,105,1,NA,NA,44,15,24,39,8399,8399,2,1,3,3,2,-2,-2,0,245,432,5,1,0.4166571
"247",1,30,120,105,1,NA,NA,44,15,24,39,13899,13899,2,1,3,3,-2,2,-2,1,246,533,6,1,0.3834149
"248",1,30,120,105,1,NA,NA,44,15,24,39,3355,3355,1,2,1,2,2,-2,-2,0,247,634,5,1,0.3667927
"249",1,30,120,105,1,NA,NA,44,15,24,39,12799,12799,2,2,1,2,2,-2,-2,0,248,794,5,0,0.4834217
"250",1,30,120,105,1,NA,NA,44,15,24,39,11199,11199,2,1,3,3,-2,2,-2,1,249,481,5,1,0.5167699
"251",1,30,120,105,1,NA,NA,44,15,24,39,12155,12155,1,3,1,3,-2,2,2,1,250,495,5,1,0.5000182
"252",1,30,120,105,1,NA,NA,44,15,24,39,3799,3799,2,2,1,2,2,-2,-2,0,251,642,6,1,0.4333399
"253",1,30,120,105,1,NA,NA,44,15,24,39,3599,3599,2,3,1,3,2,-2,2,0,252,354,6,1,0.3667126
"254",1,30,120,105,1,NA,NA,44,15,24,39,2799,2799,2,2,3,6,2,-2,-2,0,253,50,5,1,0.4501338
"255",1,30,120,105,1,NA,NA,44,15,24,39,9899,9899,2,3,2,6,-2,2,2,1,254,169,6,1,0.3667338
"256",1,30,120,105,1,NA,NA,44,15,24,39,6855,6855,1,1,3,3,2,-2,-2,0,255,404,6,1,0.4333347
"257",1,30,120,105,1,NA,NA,44,15,24,39,15099,15099,2,2,1,2,2,-2,-2,0,256,834,5,0,0.3683568
"258",1,30,120,105,1,NA,NA,44,15,24,39,13199,13199,2,3,2,6,2,-2,2,0,257,236,6,1,0.4838777
"259",1,30,120,105,1,NA,NA,44,15,24,39,7199,7199,2,2,1,2,-2,2,-2,1,258,699,6,1,0.4500497
"260",1,30,120,105,1,NA,NA,44,15,24,39,4999,4999,2,2,1,2,-2,2,-2,1,259,663,5,1,0.433413
"261",1,30,120,105,1,NA,NA,44,15,24,39,3599,3599,2,2,3,6,-2,2,-2,1,260,71,6,1,0.4167673
"262",1,30,120,105,1,NA,NA,44,15,24,39,4199,4199,2,3,1,3,2,-2,2,0,261,366,5,1,0.4167934
"263",1,30,120,105,1,NA,NA,44,15,24,39,6099,6099,2,2,3,6,-2,2,-2,1,262,107,5,1,0.3685056
"264",1,30,120,105,1,NA,NA,44,15,24,39,8499,8499,2,3,1,3,-2,2,2,1,263,435,6,1,0.3833687
"265",1,30,120,105,1,NA,NA,44,15,24,39,7699,7699,2,3,1,3,-2,2,2,1,264,423,6,1,0.5000077
"266",1,30,120,105,1,NA,NA,44,15,24,39,6855,6855,1,1,2,2,2,-2,2,0,265,688,6,1,0.4000992
"267",1,30,120,105,1,NA,NA,44,15,24,39,15799,15799,2,1,3,3,-2,2,-2,1,266,557,5,1,0.4018787
"268",1,30,120,105,1,NA,NA,44,15,24,39,12155,12155,1,2,3,6,-2,2,-2,1,267,211,5,1,0.3666433
"269",1,30,120,105,1,NA,NA,44,15,24,39,11755,11755,1,1,2,2,2,-2,2,0,268,772,6,1,0.3500158
"270",1,30,120,105,1,NA,NA,44,15,24,39,14055,14055,1,3,1,3,2,-2,2,0,269,534,5,1,0.5167695
"271",1,30,120,105,1,NA,NA,44,15,24,39,4999,4999,2,2,1,2,2,-2,-2,0,270,662,5,1,0.4166992
"272",1,30,120,105,1,NA,NA,44,15,24,39,5799,5799,2,3,1,3,2,-2,2,0,271,386,5,1,0.5166508
"273",1,30,120,105,1,NA,NA,44,15,24,39,12799,12799,2,2,3,6,2,-2,-2,0,272,226,6,1,0.4666348
"274",1,30,120,105,1,NA,NA,44,15,24,39,7699,7699,2,2,3,6,-2,2,-2,1,273,139,6,1,0.4008409
"275",1,30,120,105,1,NA,NA,44,15,24,39,10099,10099,2,3,1,3,-2,2,2,1,274,455,5,1,0.3833581
"276",1,30,120,105,1,NA,NA,44,15,24,39,10855,10855,1,3,2,6,2,-2,2,0,275,188,5,1,0.4333897
"277",1,30,120,105,1,NA,NA,44,15,24,39,17255,17255,1,1,3,3,2,-2,-2,0,276,564,6,1,0.5008799
"278",1,30,120,105,1,NA,NA,44,15,24,39,3399,3399,2,1,2,2,-2,2,2,1,277,637,5,1,0.4500124
"279",1,30,120,105,1,NA,NA,44,15,24,39,9255,9255,1,3,1,3,2,-2,2,0,278,442,6,1,0.466692
"280",1,30,120,105,1,NA,NA,44,15,24,39,14299,14299,2,1,2,2,-2,2,2,1,279,825,6,1,0.4514095
"281",1,30,120,105,1,NA,NA,44,15,24,39,6199,6199,2,3,2,6,-2,2,2,1,280,109,6,1,0.4000357
"282",1,30,120,105,1,NA,NA,44,15,24,39,3299,3299,2,3,2,6,-2,2,2,1,281,65,6,1,0.4334392
"283",1,30,120,105,1,NA,NA,44,15,24,39,3155,3155,1,1,3,3,2,-2,-2,0,282,344,6,1,0.4500227
"284",1,30,120,105,1,NA,NA,44,15,24,39,10855,10855,1,3,2,6,-2,2,2,1,283,189,5,1,0.4166961
"285",1,30,120,105,1,NA,NA,44,15,24,39,6099,6099,2,2,3,6,2,-2,-2,0,284,106,5,1,0.4000242
"286",1,30,120,105,1,NA,NA,44,15,24,39,299,299,2,3,1,3,2,-2,2,0,285,286,6,0,0.4000431
"287",1,30,120,105,1,NA,NA,44,15,24,39,10155,10155,1,1,2,2,-2,2,2,1,286,741,5,1,0.4667433
"288",1,30,120,105,1,NA,NA,44,15,24,39,2955,2955,1,3,1,3,2,-2,2,0,287,338,5,1,0.4167124
"289",1,30,120,105,1,NA,NA,44,15,24,39,1399,1399,2,1,2,2,2,-2,2,0,288,592,6,1,0.5000385
"290",1,30,120,105,1,NA,NA,44,15,24,39,13299,13299,2,1,3,3,2,-2,-2,0,289,524,5,1,0.3666563
"291",1,30,120,105,1,NA,NA,44,15,24,39,10599,10599,2,2,3,6,2,-2,-2,0,290,182,5,1,0.3668051
"292",1,30,120,105,1,NA,NA,44,15,24,39,11699,11699,2,2,3,6,-2,2,-2,1,291,203,5,0,0.3834143
"293",1,30,120,105,1,NA,NA,44,15,24,39,12855,12855,1,1,3,3,-2,2,-2,1,292,513,6,1,0.4501027
"294",1,30,120,105,1,NA,NA,44,15,24,39,13855,13855,1,3,1,3,-2,2,2,1,293,531,6,1,0.4500188
"295",1,30,120,105,1,NA,NA,44,15,24,39,6855,6855,1,1,3,3,-2,2,-2,1,294,405,5,0,0.3846248
"296",1,30,120,105,1,NA,NA,44,15,24,39,3299,3299,2,1,2,2,-2,2,2,1,295,633,6,1,0.4335825
"297",1,30,120,105,1,NA,NA,44,15,24,39,14299,14299,2,1,3,3,2,-2,-2,0,296,540,6,1,0.4833642
"298",1,30,120,105,1,NA,NA,44,15,24,39,3899,3899,2,1,3,3,-2,2,-2,1,297,361,5,1,0.6184341
"299",1,30,120,105,1,NA,NA,44,15,24,39,12099,12099,2,1,2,2,2,-2,2,0,298,776,6,1,0.4001318
"300",1,30,120,105,1,NA,NA,44,15,24,39,10199,10199,2,2,1,2,2,-2,-2,0,299,742,6,1,0.5021908
"301",1,30,120,105,1,NA,NA,44,15,24,39,6399,6399,2,2,3,6,-2,2,-2,1,300,115,6,1,0.4333698
"302",1,30,120,105,1,NA,NA,44,15,24,39,6099,6099,2,2,1,2,-2,2,-2,1,301,675,5,1,0.500022
"303",1,30,120,105,1,NA,NA,44,15,24,39,2099,2099,2,2,3,6,-2,2,-2,1,302,35,6,1,0.5500737
"304",1,30,120,105,1,NA,NA,44,15,24,39,4099,4099,2,3,1,3,-2,2,2,1,303,363,6,1,0.5000111
"305",1,30,120,105,1,NA,NA,44,15,24,39,11755,11755,1,3,2,6,2,-2,2,0,304,204,6,1,0.466713
"306",1,30,120,105,1,NA,NA,44,15,24,39,3355,3355,1,3,1,3,2,-2,2,0,305,350,6,0,0.4334511
"307",1,30,120,105,1,NA,NA,44,15,24,39,2655,2655,1,3,1,3,2,-2,2,0,306,330,6,1,0.466807
"308",1,30,120,105,1,NA,NA,44,15,24,39,6899,6899,2,2,3,6,2,-2,-2,0,307,122,5,1,0.4668044
"309",1,30,120,105,1,NA,NA,44,15,24,39,11699,11699,2,3,1,3,-2,2,2,1,308,487,6,1,0.4166989
"310",1,30,120,105,1,NA,NA,44,15,24,39,12999,12999,2,2,1,2,-2,2,-2,1,309,799,5,1,0.3666849
"311",1,30,120,105,1,NA,NA,44,15,24,39,14199,14199,2,2,1,2,-2,2,-2,1,310,823,5,1,0.4334137
"312",1,30,120,105,1,NA,NA,44,15,24,39,13899,13899,2,1,3,3,2,-2,-2,0,311,532,6,1,0.5001408
"313",1,30,120,105,1,NA,NA,44,15,24,39,599,599,2,2,1,2,-2,2,-2,1,312,579,6,1,0.4333576
"314",1,30,120,105,1,NA,NA,44,15,24,39,5599,5599,2,3,1,3,-2,2,2,1,313,383,5,1,0.5166686
"315",1,30,120,105,1,NA,NA,44,15,24,39,10599,10599,2,3,1,3,2,-2,2,0,314,466,5,1,0.4334126
"316",1,30,120,105,1,NA,NA,44,15,24,39,10855,10855,1,1,3,3,-2,2,-2,1,315,473,5,1,0.466709
"317",1,30,120,105,1,NA,NA,44,15,24,39,4599,4599,2,3,2,6,2,-2,2,0,316,88,6,1,0.4167555
"318",1,30,120,105,1,NA,NA,44,15,24,39,13255,13255,1,3,1,3,2,-2,2,0,317,522,5,1,0.4834113
"319",1,30,120,105,1,NA,NA,44,15,24,39,13255,13255,1,2,3,6,2,-2,-2,0,318,238,5,1,0.3693364
"320",1,30,120,105,1,NA,NA,44,15,24,39,8399,8399,2,1,2,2,2,-2,2,0,319,716,5,1,0.6166872
"321",1,30,120,105,1,NA,NA,44,15,24,39,9599,9599,2,1,3,3,-2,2,-2,1,320,449,6,1,0.4333386
"322",1,30,120,105,1,NA,NA,44,15,24,39,1199,1199,2,1,2,2,2,-2,2,0,321,588,5,1,0.4167543
"323",1,30,120,105,1,NA,NA,44,15,24,39,6599,6599,2,1,3,3,2,-2,-2,0,322,400,5,1,0.4334547
"324",1,30,120,105,1,NA,NA,44,15,24,39,14199,14199,2,2,3,6,2,-2,-2,0,323,254,5,1,0.3500507
"325",1,30,120,105,1,NA,NA,44,15,24,39,9199,9199,2,3,2,6,-2,2,2,1,324,157,5,1,0.4501492
"326",1,30,120,105,1,NA,NA,44,15,24,39,9399,9399,2,3,2,6,2,-2,2,0,325,160,6,1,0.5833549
"327",1,30,120,105,1,NA,NA,44,15,24,39,12855,12855,1,3,2,6,-2,2,2,1,326,229,6,1,0.4834317
"328",1,30,120,105,1,NA,NA,44,15,24,39,6599,6599,2,1,3,3,-2,2,-2,1,327,401,5,1,0.3854963
"329",1,30,120,105,1,NA,NA,44,15,24,39,14699,14699,2,1,3,3,2,-2,-2,0,328,548,5,1,0.3667743
"330",1,30,120,105,1,NA,NA,44,15,24,39,15899,15899,2,2,1,2,-2,2,-2,1,329,843,6,1,0.4334615
"331",1,30,120,105,1,NA,NA,44,15,24,39,3355,3355,1,2,3,6,-2,2,-2,1,330,67,5,1,0.4501097
"332",1,30,120,105,1,NA,NA,44,15,24,39,6699,6699,2,2,1,2,2,-2,-2,0,331,686,6,1,0.4348234
"333",1,30,120,105,1,NA,NA,44,15,24,39,14299,14299,2,3,2,6,2,-2,2,0,332,256,6,1,0.3500182
"334",1,30,120,105,1,NA,NA,44,15,24,39,10155,10155,1,3,2,6,2,-2,2,0,333,172,5,1,0.4333704
"335",1,30,120,105,1,NA,NA,44,15,24,39,10455,10455,1,2,3,6,2,-2,-2,0,334,178,5,1,0.3666072
"336",1,30,120,105,1,NA,NA,44,15,24,39,2299,2299,2,3,2,6,2,-2,2,0,335,40,5,1,0.4667869
"337",1,30,120,105,1,NA,NA,44,15,24,39,4799,4799,2,3,1,3,-2,2,2,1,336,375,5,1,0.4499713
"338",1,30,120,105,1,NA,NA,44,15,24,39,4155,4155,1,1,2,2,2,-2,2,0,337,648,6,1,0.3833384
"339",1,30,120,105,1,NA,NA,44,15,24,39,6399,6399,2,2,3,6,2,-2,-2,0,338,114,6,1,0.433428
"340",1,30,120,105,1,NA,NA,44,15,24,39,7299,7299,2,1,2,2,2,-2,2,0,339,700,5,1,0.4000107
"341",1,30,120,105,1,NA,NA,44,15,24,39,5699,5699,2,1,2,2,2,-2,2,0,340,668,6,1,0.5167067
"342",1,30,120,105,1,NA,NA,44,15,24,39,13855,13855,1,2,1,2,2,-2,-2,0,341,814,6,1,0.5000336
"343",1,30,120,105,1,NA,NA,44,15,24,39,14055,14055,1,2,1,2,2,-2,-2,0,342,818,5,1,0.3674944
"344",1,30,120,105,1,NA,NA,44,15,24,39,9899,9899,2,1,2,2,2,-2,2,0,343,736,6,1,0.3667091
"345",1,30,120,105,1,NA,NA,44,15,24,39,11099,11099,2,2,1,2,-2,2,-2,1,344,763,6,1,0.3999344
"346",1,30,120,105,1,NA,NA,44,15,24,39,999,999,2,1,3,3,2,-2,-2,0,345,300,5,1,0.4167895
"347",1,30,120,105,1,NA,NA,44,15,24,39,7099,7099,2,1,3,3,-2,2,-2,1,346,413,5,1,0.4334741
"348",1,30,120,105,1,NA,NA,44,15,24,39,13255,13255,1,2,1,2,2,-2,-2,0,347,806,5,1,0.4334498
"349",1,30,120,105,1,NA,NA,44,15,24,39,6599,6599,2,3,2,6,2,-2,2,0,348,116,5,1,0.4667812
"350",1,30,120,105,1,NA,NA,44,15,24,39,15899,15899,2,2,3,6,-2,2,-2,1,349,275,6,1,0.4666502
"351",1,30,120,105,1,NA,NA,44,15,24,39,999,999,2,3,2,6,2,-2,2,0,350,16,5,1,0.3834678
"352",1,30,120,105,1,NA,NA,44,15,24,39,5799,5799,2,2,3,6,2,-2,-2,0,351,102,5,1,0.4018325
"353",1,30,120,105,1,NA,NA,44,15,24,39,3199,3199,2,2,3,6,2,-2,-2,0,352,62,5,1,0.4499816
"354",1,30,120,105,1,NA,NA,44,15,24,39,12855,12855,1,3,2,6,2,-2,2,0,353,228,6,1,0.5000307
"355",1,30,120,105,1,NA,NA,44,15,24,39,9699,9699,2,3,1,3,2,-2,2,0,354,450,5,1,0.766771
"356",1,30,120,105,1,NA,NA,44,15,24,39,8099,8099,2,1,2,2,2,-2,2,0,355,712,5,1,0.5001291
"357",1,30,120,105,1,NA,NA,44,15,24,39,11699,11699,2,2,3,6,2,-2,-2,0,356,202,6,1,0.5000413
"358",1,30,120,105,1,NA,NA,44,15,24,39,14499,14499,2,3,1,3,2,-2,2,0,357,546,6,1,0.5001391
"359",1,30,120,105,1,NA,NA,44,15,24,39,12699,12699,2,1,3,3,2,-2,-2,0,358,508,5,1,0.4173328
"360",1,30,120,105,1,NA,NA,44,15,24,39,2255,2255,1,2,3,6,2,-2,-2,0,359,38,5,1,0.4000513
"361",1,30,120,105,1,NA,NA,44,15,24,39,7799,7799,2,1,2,2,-2,2,2,1,360,709,5,1,0.4667759
"362",1,30,120,105,1,NA,NA,44,15,24,39,10599,10599,2,2,1,2,-2,2,-2,1,361,751,5,1,0.3666328
"363",1,30,120,105,1,NA,NA,44,15,24,39,2299,2299,2,1,3,3,2,-2,-2,0,362,324,5,1,0.4181133
"364",1,30,120,105,1,NA,NA,44,15,24,39,14155,14155,1,1,2,2,2,-2,2,0,363,820,6,1,0.5166518
"365",1,30,120,105,1,NA,NA,44,15,24,39,5299,5299,2,1,2,2,-2,2,2,1,364,665,6,1,0.4500324
"366",1,30,120,105,1,NA,NA,44,15,24,39,14155,14155,1,1,2,2,-2,2,2,1,365,821,6,1,0.4000313
"367",1,30,120,105,1,NA,NA,44,15,24,39,8699,8699,2,1,3,3,-2,2,-2,1,366,437,5,1,0.4166816
"368",1,30,120,105,1,NA,NA,44,15,24,39,1899,1899,2,1,3,3,2,-2,-2,0,367,316,5,1,0.3500282
"369",1,30,120,105,1,NA,NA,44,15,24,39,9599,9599,2,3,2,6,-2,2,2,1,368,165,6,1,0.350007
"370",1,30,120,105,1,NA,NA,44,15,24,39,4299,4299,2,1,3,3,-2,2,-2,1,369,369,6,1,0.5833899
"371",1,30,120,105,1,NA,NA,44,15,24,39,13199,13199,2,1,2,2,-2,2,2,1,370,805,6,1,0.5166378
"372",1,30,120,105,1,NA,NA,44,15,24,39,799,799,2,1,2,2,2,-2,2,0,371,580,5,1,0.4000342
"373",1,30,120,105,1,NA,NA,44,15,24,39,3155,3155,1,1,2,2,-2,2,2,1,372,629,6,1,0.3666642
"374",1,30,120,105,1,NA,NA,44,15,24,39,15899,15899,2,3,1,3,2,-2,2,0,373,558,5,0,0.4166174
"375",1,30,120,105,1,NA,NA,44,15,24,39,10599,10599,2,2,3,6,-2,2,-2,1,374,183,5,1,1.0499571
"376",1,30,120,105,1,NA,NA,44,15,24,39,3399,3399,2,1,3,3,2,-2,-2,0,375,352,5,1,0.4850255
"377",1,30,120,105,1,NA,NA,44,15,24,39,2655,2655,1,2,3,6,-2,2,-2,1,376,47,6,1,0.4667956
"378",1,30,120,105,1,NA,NA,44,15,24,39,15099,15099,2,3,1,3,2,-2,2,0,377,550,6,1,0.3500515
"379",1,30,120,105,1,NA,NA,44,15,24,39,13255,13255,1,2,3,6,-2,2,-2,1,378,239,5,1,0.383342
"380",1,30,120,105,1,NA,NA,44,15,24,39,7999,7999,2,2,3,6,-2,2,-2,1,379,143,6,1,0.4166199
"381",1,30,120,105,1,NA,NA,44,15,24,39,1255,1255,1,2,3,6,-2,2,-2,1,380,23,6,1,0.4011331
"382",1,30,120,105,1,NA,NA,44,15,24,39,4799,4799,2,2,3,6,-2,2,-2,1,381,91,5,1,0.3334622
"383",1,30,120,105,1,NA,NA,44,15,24,39,7999,7999,2,2,1,2,-2,2,-2,1,382,711,6,1,0.4333733
"384",1,30,120,105,1,NA,NA,44,15,24,39,899,899,2,2,3,6,2,-2,-2,0,383,14,5,0,0.3847548
"385",1,30,120,105,1,NA,NA,44,15,24,39,12855,12855,1,1,2,2,-2,2,2,1,384,797,6,1,0.7504255
"386",1,30,120,105,1,NA,NA,44,15,24,39,8699,8699,2,3,2,6,2,-2,2,0,385,152,5,1,0.5500954
"387",1,30,120,105,1,NA,NA,44,15,24,39,12299,12299,2,2,1,2,2,-2,-2,0,386,782,6,1,0.418194
"388",1,30,120,105,1,NA,NA,44,15,24,39,455,455,1,2,1,2,-2,2,-2,1,387,575,5,1,0.4167932
"389",1,30,120,105,1,NA,NA,44,15,24,39,7699,7699,2,2,3,6,2,-2,-2,0,388,138,6,1,0.416683
"390",1,30,120,105,1,NA,NA,44,15,24,39,7599,7599,2,1,2,2,2,-2,2,0,389,704,5,1,0.4667483
"391",1,30,120,105,1,NA,NA,44,15,24,39,11099,11099,2,3,1,3,-2,2,2,1,390,479,6,1,0.3834129
"392",1,30,120,105,1,NA,NA,44,15,24,39,14155,14155,1,1,3,3,2,-2,-2,0,391,536,6,1,0.5501261
"393",1,30,120,105,1,NA,NA,44,15,24,39,10899,10899,2,3,1,3,2,-2,2,0,392,474,6,1,0.3834777
"394",1,30,120,105,1,NA,NA,44,15,24,39,12199,12199,2,1,3,3,-2,2,-2,1,393,497,5,1,0.3676607
"395",1,30,120,105,1,NA,NA,44,15,24,39,2599,2599,2,3,2,6,2,-2,2,0,394,44,6,0,0.3667072
"396",1,30,120,105,1,NA,NA,44,15,24,39,3155,3155,1,3,2,6,2,-2,2,0,395,60,6,1,0.4001203
"397",1,30,120,105,1,NA,NA,44,15,24,39,999,999,2,3,2,6,-2,2,2,1,396,17,5,1,0.4333517
"398",1,30,120,105,1,NA,NA,44,15,24,39,13155,13155,1,2,3,6,2,-2,-2,0,397,234,6,1,0.4000262
"399",1,30,120,105,1,NA,NA,44,15,24,39,13299,13299,2,3,2,6,-2,2,2,1,398,241,5,1,0.4500361
"400",1,30,120,105,1,NA,NA,44,15,24,39,2099,2099,2,2,3,6,2,-2,-2,0,399,34,6,1,0.4334227
"401",1,30,120,105,1,NA,NA,44,15,24,39,499,499,2,1,2,2,-2,2,2,1,400,577,5,1,0.400057
"402",1,30,120,105,1,NA,NA,44,15,24,39,2699,2699,2,1,2,2,-2,2,2,1,401,617,6,1,0.3833667
"403",1,30,120,105,1,NA,NA,44,15,24,39,1799,1799,2,1,3,3,-2,2,-2,1,402,313,6,1,0.4666261
"404",1,30,120,105,1,NA,NA,44,15,24,39,10799,10799,2,2,3,6,-2,2,-2,1,403,187,5,1,0.3833502
"405",1,30,120,105,1,NA,NA,44,15,24,39,2799,2799,2,2,3,6,-2,2,-2,1,404,51,5,1,0.4000457
"406",1,30,120,105,1,NA,NA,44,15,24,39,599,599,2,2,3,6,2,-2,-2,0,405,10,6,1,0.3833766
"407",1,30,120,105,1,NA,NA,44,15,24,39,14055,14055,1,2,3,6,2,-2,-2,0,406,250,5,1,0.4500466
"408",1,30,120,105,1,NA,NA,44,15,24,39,2255,2255,1,3,1,3,2,-2,2,0,407,322,5,1,0.483367
"409",1,30,120,105,1,NA,NA,44,15,24,39,2999,2999,2,1,2,2,-2,2,2,1,408,625,5,1,0.4334406
"410",1,30,120,105,1,NA,NA,44,15,24,39,2999,2999,2,1,2,2,2,-2,2,0,409,624,5,1,0.3844622
"411",1,30,120,105,1,NA,NA,44,15,24,39,2699,2699,2,3,2,6,-2,2,2,1,410,49,6,1,0.3500485
"412",1,30,120,105,1,NA,NA,44,15,24,39,14399,14399,2,1,3,3,-2,2,-2,1,411,545,5,1,0.3666876
"413",1,30,120,105,1,NA,NA,44,15,24,39,7699,7699,2,2,1,2,-2,2,-2,1,412,707,6,1,0.4014824
"414",1,30,120,105,1,NA,NA,44,15,24,39,2955,2955,1,3,1,3,-2,2,2,1,413,339,5,1,0.3833769
"415",1,30,120,105,1,NA,NA,44,15,24,39,1255,1255,1,2,1,2,2,-2,-2,0,414,590,6,1,0.4833587
"416",1,30,120,105,1,NA,NA,44,15,24,39,12599,12599,2,2,1,2,-2,2,-2,1,415,791,6,1,0.4167866
"417",1,30,120,105,1,NA,NA,44,15,24,39,6355,6355,1,1,2,2,-2,2,2,1,416,681,5,1,0.4500003
"418",1,30,120,105,1,NA,NA,44,15,24,39,2155,2155,1,3,2,6,-2,2,2,1,417,37,6,1,0.3500172
"419",1,30,120,105,1,NA,NA,44,15,24,39,9699,9699,2,2,3,6,-2,2,-2,1,418,167,5,1,0.4332934
"420",1,30,120,105,1,NA,NA,44,15,24,39,599,599,2,3,1,3,2,-2,2,0,419,294,6,1,0.4167856
"421",1,30,120,105,1,NA,NA,44,15,24,39,17355,17355,1,2,3,6,-2,2,-2,1,420,283,5,1,0.4001156
"422",1,30,120,105,1,NA,NA,44,15,24,39,6999,6999,2,2,1,2,-2,2,-2,1,421,695,6,1,0.5167632
"423",1,30,120,105,1,NA,NA,44,15,24,39,3155,3155,1,3,2,6,-2,2,2,1,422,61,6,1,0.5167804
"424",1,30,120,105,1,NA,NA,44,15,24,39,4899,4899,2,1,3,3,2,-2,-2,0,423,376,6,1,0.4334167
"425",1,30,120,105,1,NA,NA,44,15,24,39,5899,5899,2,1,3,3,-2,2,-2,1,424,389,6,1,0.4000045
"426",1,30,120,105,1,NA,NA,44,15,24,39,17255,17255,1,1,2,2,2,-2,2,0,425,848,6,1,0.3833643
"427",1,30,120,105,1,NA,NA,44,15,24,39,7099,7099,2,3,2,6,2,-2,2,0,426,128,5,1,0.4833785
"428",1,30,120,105,1,NA,NA,44,15,24,39,10199,10199,2,3,1,3,-2,2,2,1,427,459,6,1,0.3333806
"429",1,30,120,105,1,NA,NA,44,15,24,39,14055,14055,1,2,1,2,-2,2,-2,1,428,819,5,1,0.3833711
"430",1,30,120,105,1,NA,NA,44,15,24,39,8199,8199,2,3,1,3,2,-2,2,0,429,430,6,1,0.3167603
"431",1,30,120,105,1,NA,NA,44,15,24,39,6955,6955,1,1,2,2,-2,2,2,1,430,693,5,1,0.4521599
"432",1,30,120,105,1,NA,NA,44,15,24,39,6955,6955,1,3,2,6,-2,2,2,1,431,125,5,1,0.4000234
"433",1,30,120,105,1,NA,NA,44,15,24,39,3599,3599,2,2,1,2,-2,2,-2,1,432,639,6,1,0.4166442
"434",1,30,120,105,1,NA,NA,44,15,24,39,14199,14199,2,3,1,3,-2,2,2,1,433,539,5,1,0.5019176
"435",1,30,120,105,1,NA,NA,44,15,24,39,6699,6699,2,3,1,3,2,-2,2,0,434,402,6,1,0.3666281
"436",1,30,120,105,1,NA,NA,44,15,24,39,12299,12299,2,2,3,6,2,-2,-2,0,435,214,6,1,0.4167165
"437",1,30,120,105,1,NA,NA,44,15,24,39,8199,8199,2,2,1,2,-2,2,-2,1,436,715,5,0,0.3666746
"438",1,30,120,105,1,NA,NA,44,15,24,39,10699,10699,2,1,3,3,-2,2,-2,1,437,469,6,1,0.4833286
"439",1,30,120,105,1,NA,NA,44,15,24,39,599,599,2,2,3,6,-2,2,-2,1,438,11,6,1,0.4348171
"440",1,30,120,105,1,NA,NA,44,15,24,39,1855,1855,1,2,1,2,-2,2,-2,1,439,599,5,1,0.4166845
"441",1,30,120,105,1,NA,NA,44,15,24,39,11699,11699,2,3,1,3,2,-2,2,0,440,486,6,1,0.4500199
"442",1,30,120,105,1,NA,NA,44,15,24,39,5799,5799,2,2,3,6,-2,2,-2,1,441,103,5,1,0.4166924
"443",1,30,120,105,1,NA,NA,44,15,24,39,3899,3899,2,3,2,6,2,-2,2,0,442,76,5,1,0.4832539
"444",1,30,120,105,1,NA,NA,44,15,24,39,9899,9899,2,1,2,2,-2,2,2,1,443,737,6,1,0.4000758
"445",1,30,120,105,1,NA,NA,44,15,24,39,11199,11199,2,3,2,6,-2,2,2,1,444,197,5,1,0.4834152
"446",1,30,120,105,1,NA,NA,44,15,24,39,12499,12499,2,2,1,2,-2,2,-2,1,445,787,5,1,0.5168124
"447",1,30,120,105,1,NA,NA,44,15,24,39,8799,8799,2,2,3,6,-2,2,-2,1,446,155,6,1,0.4334617
"448",1,30,120,105,1,NA,NA,44,15,24,39,2899,2899,2,1,2,2,-2,2,2,1,447,621,6,1,0.3833931
"449",1,30,120,105,1,NA,NA,44,15,24,39,2955,2955,1,2,1,2,-2,2,-2,1,448,623,5,1,0.3500164
"450",1,30,120,105,1,NA,NA,44,15,24,39,1099,1099,2,2,1,2,-2,2,-2,1,449,587,6,1,0.4167157
"451",1,30,120,105,1,NA,NA,44,15,24,39,4599,4599,2,1,2,2,-2,2,2,1,450,657,6,1,0.3834681
"452",1,30,120,105,1,NA,NA,44,15,24,39,3155,3155,1,1,2,2,2,-2,2,0,451,628,6,1,0.3666832
"453",1,30,120,105,1,NA,NA,44,15,24,39,9399,9399,2,1,3,3,-2,2,-2,1,452,445,6,1,0.5167259
"454",1,30,120,105,1,NA,NA,44,15,24,39,13899,13899,2,1,2,2,2,-2,2,0,453,816,6,1,0.4667863
"455",1,30,120,105,1,NA,NA,44,15,24,39,7799,7799,2,3,2,6,2,-2,2,0,454,140,5,1,0.4512337
"456",1,30,120,105,1,NA,NA,44,15,24,39,13155,13155,1,2,1,2,-2,2,-2,1,455,803,6,1,0.5336934
"457",1,30,120,105,1,NA,NA,44,15,24,39,5699,5699,2,3,2,6,2,-2,2,0,456,100,6,1,0.4000574
"458",1,30,120,105,1,NA,NA,44,15,24,39,1799,1799,2,1,2,2,-2,2,2,1,457,597,6,1,0.3834786
"459",1,30,120,105,1,NA,NA,44,15,24,39,299,299,2,2,3,6,2,-2,-2,0,458,2,5,1,0.383377
"460",1,30,120,105,1,NA,NA,44,15,24,39,6899,6899,2,2,3,6,-2,2,-2,1,459,123,5,1,0.4001361
"461",1,30,120,105,1,NA,NA,44,15,24,39,12355,12355,1,1,2,2,2,-2,2,0,460,784,6,1,0.3833821
"462",1,30,120,105,1,NA,NA,44,15,24,39,12599,12599,2,2,1,2,2,-2,-2,0,461,790,6,1,0.6834632
"463",1,30,120,105,1,NA,NA,44,15,24,39,12555,12555,1,2,3,6,2,-2,2,0,462,220,5,1,0.4833682
"464",1,30,120,105,1,NA,NA,44,15,24,39,12799,12799,2,2,1,2,-2,2,-2,1,463,795,6,1,0.4334468
"465",1,30,120,105,1,NA,NA,44,15,24,39,14199,14199,2,2,1,2,2,-2,-2,0,464,822,5,1,0.4333839
"466",1,30,120,105,1,NA,NA,44,15,24,39,2655,2655,1,2,1,2,-2,2,-2,1,465,615,6,1,0.4667971
"467",1,30,120,105,1,NA,NA,44,15,24,39,5299,5299,2,1,3,3,-2,2,-2,1,466,381,6,1,0.4334356
"468",1,30,120,105,1,NA,NA,44,15,24,39,1899,1899,2,1,2,2,2,-2,2,0,467,600,5,1,0.3667168
"469",1,30,120,105,1,NA,NA,44,15,24,39,5299,5299,2,1,3,3,2,-2,-2,0,468,380,6,1,0.450115
"470",1,30,120,105,1,NA,NA,44,15,24,39,12199,12199,2,1,2,2,2,-2,2,0,469,780,5,1,0.4001155
"471",1,30,120,105,1,NA,NA,44,15,24,39,4399,4399,2,2,1,2,-2,2,-2,1,470,655,5,1,0.4667798
"472",1,30,120,105,1,NA,NA,44,15,24,39,9599,9599,2,1,2,2,-2,2,2,1,471,733,6,1,0.3834012
"473",1,30,120,105,1,NA,NA,44,15,24,39,4199,4199,2,2,3,6,-2,2,-2,1,472,83,5,1,0.3667863
"474",1,30,120,105,1,NA,NA,44,15,24,39,11799,11799,2,2,3,6,2,-2,-2,0,473,206,5,1,0.4333947
"475",1,30,120,105,1,NA,NA,44,15,24,39,10899,10899,2,2,1,2,-2,2,-2,1,474,759,6,1,0.433356
"476",1,30,120,105,1,NA,NA,44,15,24,39,9699,9699,2,2,3,6,2,-2,-2,0,475,166,5,1,0.433388
"477",1,30,120,105,1,NA,NA,44,15,24,39,11399,11399,2,2,1,2,-2,2,-2,1,476,767,6,1,0.4500345
"478",1,30,120,105,1,NA,NA,44,15,24,39,3399,3399,2,1,3,3,-2,2,-2,1,477,353,5,1,0.4166848
"479",1,30,120,105,1,NA,NA,44,15,24,39,1399,1399,2,1,2,2,-2,2,2,1,478,593,6,1,0.3667911
"480",1,30,120,105,1,NA,NA,44,15,24,39,14399,14399,2,1,2,2,2,-2,2,0,479,828,5,1,0.4667745
"481",1,30,120,105,1,NA,NA,44,15,24,39,455,455,1,3,1,3,2,-2,2,0,480,290,6,0,0.3513878
"482",1,30,120,105,1,NA,NA,44,15,24,39,12555,12555,1,2,3,6,-2,2,2,1,481,221,5,1,0.4337723
"483",1,30,120,105,1,NA,NA,44,15,24,39,999,999,2,1,2,2,-2,2,2,1,482,585,5,1,0.4167972
"484",1,30,120,105,1,NA,NA,44,15,24,39,4199,4199,2,2,1,2,2,-2,-2,0,483,650,5,1,0.4167173
"485",1,30,120,105,1,NA,NA,44,15,24,39,2799,2799,2,2,1,2,2,-2,-2,0,484,618,5,1,0.3840742
"486",1,30,120,105,1,NA,NA,44,15,24,39,2399,2399,2,2,1,2,-2,2,-2,1,485,611,6,1,0.4668053
"487",1,30,120,105,1,NA,NA,44,15,24,39,10355,10355,1,1,2,2,-2,2,2,1,486,745,6,1,0.4167161
"488",1,30,120,105,1,NA,NA,44,15,24,39,7299,7299,2,3,2,6,2,-2,2,0,487,132,5,1,0.4009726
"489",1,30,120,105,1,NA,NA,44,15,24,39,5799,5799,2,3,1,3,-2,2,2,1,488,387,5,1,0.4167076
"490",1,30,120,105,1,NA,NA,44,15,24,39,14355,14355,1,2,3,6,2,-2,-2,0,489,258,5,1,0.4333567
"491",1,30,120,105,1,NA,NA,44,15,24,39,10099,10099,2,2,1,2,-2,2,-2,1,490,739,5,1,0.3500377
"492",1,30,120,105,1,NA,NA,44,15,24,39,14155,14155,1,3,2,6,2,-2,2,0,491,252,6,1,0.3500505
"493",1,30,120,105,1,NA,NA,44,15,24,39,5299,5299,2,1,2,2,2,-2,2,0,492,664,6,1,0.3667268
"494",1,30,120,105,1,NA,NA,44,15,24,39,13155,13155,1,2,3,6,-2,2,-2,1,493,235,6,1,0.533367
"495",1,30,120,105,1,NA,NA,44,15,24,39,2599,2599,2,1,3,3,-2,2,-2,1,494,329,5,1,0.3833723
"496",1,30,120,105,1,NA,NA,44,15,24,39,9899,9899,2,1,3,3,-2,2,-2,1,495,453,6,1,0.4001364
"497",1,30,120,105,1,NA,NA,44,15,24,39,6699,6699,2,3,1,3,-2,2,2,1,496,403,6,1,0.433365
"498",1,30,120,105,1,NA,NA,44,15,24,39,14499,14499,2,2,1,2,2,-2,-2,0,497,830,6,1,0.4833779
"499",1,30,120,105,1,NA,NA,44,15,24,39,16299,16299,2,2,3,6,2,-2,-2,0,498,278,6,1,0.4345768
"500",1,30,120,105,1,NA,NA,44,15,24,39,5799,5799,2,2,1,2,2,-2,-2,0,499,670,5,1,0.416724
"501",1,30,120,105,1,NA,NA,44,15,24,39,10999,10999,2,1,2,2,2,-2,2,0,500,760,5,1,0.4500126
"502",1,30,120,105,1,NA,NA,44,15,24,39,3099,3099,2,2,3,6,2,-2,-2,0,501,58,6,1,0.5334129
"503",1,30,120,105,1,NA,NA,44,15,24,39,2599,2599,2,1,2,2,-2,2,2,1,502,613,5,1,0.4666471
"504",1,30,120,105,1,NA,NA,44,15,24,39,7399,7399,2,3,1,3,-2,2,2,1,503,419,6,1,0.5500267
"505",1,30,120,105,1,NA,NA,44,15,24,39,1099,1099,2,2,1,2,2,-2,-2,0,504,586,6,1,0.4340401
"506",1,30,120,105,1,NA,NA,44,15,24,39,10455,10455,1,2,3,6,-2,2,-2,1,505,179,5,1,0.4167593
"507",1,30,120,105,1,NA,NA,44,15,24,39,10899,10899,2,2,1,2,2,-2,-2,0,506,758,6,1,0.4667612
"508",1,30,120,105,1,NA,NA,44,15,24,39,4899,4899,2,1,2,2,2,-2,2,0,507,660,6,1,0.4167696
"509",1,30,120,105,1,NA,NA,44,15,24,39,12599,12599,2,3,1,3,2,-2,2,0,508,506,6,1,0.4001411
"510",1,30,120,105,1,NA,NA,44,15,24,39,8399,8399,2,1,3,3,-2,2,-2,1,509,433,5,1,0.4166515
"511",1,30,120,105,1,NA,NA,44,15,24,39,10455,10455,1,2,1,2,2,-2,-2,0,510,746,5,1,0.5000942
"512",1,30,120,105,1,NA,NA,44,15,24,39,14699,14699,2,3,2,6,-2,2,2,1,511,265,5,1,0.4168015
"513",1,30,120,105,1,NA,NA,44,15,24,39,2099,2099,2,3,1,3,-2,2,2,1,512,319,6,1,0.4168857
"514",1,30,120,105,1,NA,NA,44,15,24,39,10899,10899,2,3,1,3,-2,2,2,1,513,475,6,1,0.4667819
"515",1,30,120,105,1,NA,NA,44,15,24,39,15799,15799,2,1,3,3,2,-2,-2,0,514,556,5,1,0.4000447
"516",1,30,120,105,1,NA,NA,44,15,24,39,499,499,2,1,3,3,2,-2,-2,0,515,292,5,1,0.4333603
"517",1,30,120,105,1,NA,NA,44,15,24,39,17255,17255,1,3,2,6,-2,2,2,1,516,281,6,1,0.4167293
"518",1,30,120,105,1,NA,NA,44,15,24,39,7599,7599,2,1,3,3,2,-2,-2,0,517,420,5,1,0.4669847
"519",1,30,120,105,1,NA,NA,44,15,24,39,4399,4399,2,2,3,6,2,-2,-2,0,518,86,5,1,0.5167154
"520",1,30,120,105,1,NA,NA,44,15,24,39,2955,2955,1,2,1,2,2,-2,-2,0,519,622,5,1,0.4000482
"521",1,30,120,105,1,NA,NA,44,15,24,39,16199,16199,2,1,2,2,2,-2,2,0,520,844,6,0,0.3667048
"522",1,30,120,105,1,NA,NA,44,15,24,39,6355,6355,1,1,3,3,2,-2,-2,0,521,396,5,1,0.4166316
"523",1,30,120,105,1,NA,NA,44,15,24,39,1199,1199,2,3,2,6,-2,2,2,1,522,21,5,1,0.4166187
"524",1,30,120,105,1,NA,NA,44,15,24,39,10855,10855,1,1,2,2,2,-2,2,0,523,756,5,1,0.5833893
"525",1,30,120,105,1,NA,NA,44,15,24,39,2899,2899,2,1,3,3,-2,2,-2,1,524,337,6,1,0.5001323
"526",1,30,120,105,1,NA,NA,44,15,24,39,7799,7799,2,3,2,6,-2,2,2,1,525,141,5,1,0.4833875
"527",1,30,120,105,1,NA,NA,44,15,24,39,799,799,2,3,2,6,-2,2,2,1,526,13,5,1,0.5000747
"528",1,30,120,105,1,NA,NA,44,15,24,39,2299,2299,2,1,3,3,-2,2,-2,1,527,325,5,1,0.4333757
"529",1,30,120,105,1,NA,NA,44,15,24,39,12999,12999,2,2,1,2,2,-2,-2,0,528,798,5,1,0.4001393
"530",1,30,120,105,1,NA,NA,44,15,24,39,13699,13699,2,3,2,6,2,-2,2,0,529,244,5,1,0.4009105
"531",1,30,120,105,1,NA,NA,44,15,24,39,15099,15099,2,2,3,6,-2,2,-2,1,530,267,6,1,0.5167634
"532",1,30,120,105,1,NA,NA,44,15,24,39,12999,12999,2,2,3,6,-2,2,-2,1,531,231,5,1,0.4166675
"533",1,30,120,105,1,NA,NA,44,15,24,39,3199,3199,2,2,1,2,2,-2,-2,0,532,630,5,1,0.3678046
"534",1,30,120,105,1,NA,NA,44,15,24,39,13155,13155,1,3,1,3,2,-2,2,0,533,518,6,1,0.6000517
"535",1,30,120,105,1,NA,NA,44,15,24,39,14299,14299,2,3,2,6,-2,2,2,1,534,257,6,1,0.5000804
"536",1,30,120,105,1,NA,NA,44,15,24,39,3199,3199,2,3,1,3,-2,2,2,1,535,347,5,1,0.4334361
"537",1,30,120,105,1,NA,NA,44,15,24,39,10555,10555,1,1,2,2,2,-2,2,0,536,748,6,1,0.4834433
"538",1,30,120,105,1,NA,NA,44,15,24,39,3799,3799,2,3,1,3,-2,2,2,1,537,359,6,1,0.4001156
"539",1,30,120,105,1,NA,NA,44,15,24,39,2599,2599,2,3,2,6,-2,2,2,1,538,45,5,1,0.4017037
"540",1,30,120,105,1,NA,NA,44,15,24,39,10999,10999,2,1,3,3,2,-2,-2,0,539,476,5,1,0.433356
"541",1,30,120,105,1,NA,NA,44,15,24,39,8799,8799,2,3,1,3,2,-2,2,0,540,438,6,1,0.3834819
"542",1,30,120,105,1,NA,NA,44,15,24,39,899,899,2,2,1,2,2,-2,-2,0,541,582,6,1,0.466762
"543",1,30,120,105,1,NA,NA,44,15,24,39,5599,5599,2,3,1,3,2,-2,2,0,542,382,5,1,0.400134
"544",1,30,120,105,1,NA,NA,44,15,24,39,17355,17355,1,2,1,2,-2,2,-2,1,543,851,5,1,0.5000915
"545",1,30,120,105,1,NA,NA,44,15,24,39,5799,5799,2,2,1,2,-2,2,-2,1,544,671,5,1,0.433336
"546",1,30,120,105,1,NA,NA,44,15,24,39,14399,14399,2,1,2,2,-2,2,2,1,545,829,5,1,0.4999785
"547",1,30,120,105,1,NA,NA,44,15,24,39,14055,14055,1,2,3,6,-2,2,-2,1,546,251,6,0,0.3834107
"548",1,30,120,105,1,NA,NA,44,15,24,39,3099,3099,2,3,1,3,2,-2,2,0,547,342,6,1,0.4334087
"549",1,30,120,105,1,NA,NA,44,15,24,39,4999,4999,2,3,1,3,2,-2,2,0,548,378,5,1,0.4167041
"550",1,30,120,105,1,NA,NA,44,15,24,39,13055,13055,1,1,2,2,-2,2,2,1,549,801,5,1,0.4167685
"551",1,30,120,105,1,NA,NA,44,15,24,39,2699,2699,2,3,2,6,2,-2,2,0,550,48,5,0,0.4000252
"552",1,30,120,105,1,NA,NA,44,15,24,39,199,199,2,3,2,6,2,-2,2,0,551,0,6,1,0.6666395
"553",1,30,120,105,1,NA,NA,44,15,24,39,2399,2399,2,2,1,2,2,-2,-2,0,552,610,6,1,0.5167588
"554",1,30,120,105,1,NA,NA,44,15,24,39,4399,4399,2,2,3,6,-2,2,-2,1,553,87,5,1,0.4166814
"555",1,30,120,105,1,NA,NA,44,15,24,39,16299,16299,2,3,1,3,-2,2,2,1,554,563,6,1,0.4834113
"556",1,30,120,105,1,NA,NA,44,15,24,39,3355,3355,1,2,1,2,-2,2,-2,1,555,635,5,1,0.383413
"557",1,30,120,105,1,NA,NA,44,15,24,39,455,455,1,3,1,3,-2,2,2,1,556,291,5,1,0.466685
"558",1,30,120,105,1,NA,NA,44,15,24,39,2099,2099,2,3,1,3,2,-2,2,0,557,318,6,1,0.500037
"559",1,30,120,105,1,NA,NA,44,15,24,39,11755,11755,1,1,3,3,2,-2,-2,0,558,488,6,1,0.5000479
"560",1,30,120,105,1,NA,NA,44,15,24,39,10999,10999,2,3,2,6,-2,2,2,1,559,193,5,1,0.4001307
"561",1,30,120,105,1,NA,NA,44,15,24,39,799,799,2,1,2,2,-2,2,2,1,560,581,5,1,0.433461
"562",1,30,120,105,1,NA,NA,44,15,24,39,11399,11399,2,3,1,3,2,-2,2,0,561,482,6,1,0.3666316
"563",1,30,120,105,1,NA,NA,44,15,24,39,4099,4099,2,2,3,6,2,-2,-2,0,562,78,6,1,0.4501358
"564",1,30,120,105,1,NA,NA,44,15,24,39,6699,6699,2,2,1,2,-2,2,-2,1,563,687,6,1,0.3668159
"565",1,30,120,105,1,NA,NA,44,15,24,39,11399,11399,2,2,3,6,-2,2,-2,1,564,199,6,1,0.4001323
"566",1,30,120,105,1,NA,NA,44,15,24,39,13499,13499,2,2,1,2,-2,2,-2,1,565,811,6,1,0.3834169
"567",1,30,120,105,1,NA,NA,44,15,24,39,12199,12199,2,1,3,3,2,-2,-2,0,566,496,5,1,0.3500181
"568",1,30,120,105,1,NA,NA,44,15,24,39,15299,15299,2,1,3,3,-2,2,-2,1,567,553,5,1,0.3833827
"569",1,30,120,105,1,NA,NA,44,15,24,39,599,599,2,3,1,3,-2,2,2,1,568,295,6,1,0.3833762
"570",1,30,120,105,1,NA,NA,44,15,24,39,199,199,2,1,2,2,2,-2,2,0,569,568,6,1,0.4000001
"571",1,30,120,105,1,NA,NA,44,15,24,39,10155,10155,1,3,2,6,-2,2,2,1,570,173,5,1,0.5334125
"572",1,30,120,105,1,NA,NA,44,15,24,39,4399,4399,2,3,1,3,2,-2,2,0,571,370,5,1,0.4667767
"573",1,30,120,105,1,NA,NA,44,15,24,39,13499,13499,2,2,3,6,2,-2,-2,0,572,242,6,1,0.4667407
"574",1,30,120,105,1,NA,NA,44,15,24,39,5699,5699,2,1,3,3,-2,2,-2,1,573,385,6,1,0.5333535
"575",1,30,120,105,1,NA,NA,44,15,24,39,3099,3099,2,2,1,2,2,-2,-2,0,574,626,6,1,0.483365
"576",1,30,120,105,1,NA,NA,44,15,24,39,13499,13499,2,2,3,6,-2,2,-2,1,575,243,6,1,0.4501285
"577",1,30,120,105,1,NA,NA,44,15,24,39,14355,14355,1,2,1,2,2,-2,-2,0,576,826,5,1,0.4666557
"578",1,30,120,105,1,NA,NA,44,15,24,39,455,455,1,2,1,2,2,-2,-2,0,577,574,5,1,0.5333714
"579",1,30,120,105,1,NA,NA,44,15,24,39,10699,10699,2,1,2,2,2,-2,2,0,578,752,6,1,0.7167174
"580",1,30,120,105,1,NA,NA,44,15,24,39,3699,3699,2,1,2,2,2,-2,2,0,579,640,5,1,0.5501079
"581",1,30,120,105,1,NA,NA,44,15,24,39,16299,16299,2,2,3,6,-2,2,-2,1,580,279,5,0,0.5833034
"582",1,30,120,105,1,NA,NA,44,15,24,39,9699,9699,2,3,1,3,-2,2,2,1,581,451,5,1,0.7676381
"583",1,30,120,105,1,NA,NA,44,15,24,39,4299,4299,2,3,2,6,2,-2,2,0,582,84,6,1,0.4834007
"584",1,30,120,105,1,NA,NA,44,15,24,39,14155,14155,1,3,2,6,-2,2,2,1,583,253,6,1,0.6000104
"585",1,30,120,105,1,NA,NA,44,15,24,39,11199,11199,2,1,2,2,2,-2,2,0,584,764,5,1,0.5010446
"586",1,30,120,105,1,NA,NA,44,15,24,39,2155,2155,1,1,2,2,-2,2,2,1,585,605,6,1,0.4833306
"587",1,30,120,105,1,NA,NA,44,15,24,39,9255,9255,1,2,1,2,-2,2,-2,1,586,727,6,1,0.4833384
"588",1,30,120,105,1,NA,NA,44,15,24,39,13299,13299,2,1,2,2,-2,2,2,1,587,809,5,1,0.4333358
"589",1,30,120,105,1,NA,NA,44,15,24,39,3799,3799,2,2,1,2,-2,2,-2,1,588,643,6,1,0.4834352
"590",1,30,120,105,1,NA,NA,44,15,24,39,1799,1799,2,1,3,3,2,-2,-2,0,589,312,6,1,0.4666827
"591",1,30,120,105,1,NA,NA,44,15,24,39,1899,1899,2,1,3,3,-2,2,-2,1,590,317,5,1,0.3848032
"592",1,30,120,105,1,NA,NA,44,15,24,39,3799,3799,2,2,3,6,-2,2,-2,1,591,75,6,1,0.5167292
"593",1,30,120,105,1,NA,NA,44,15,24,39,13199,13199,2,3,2,6,-2,2,2,1,592,237,6,1,0.6689728
"594",1,30,120,105,1,NA,NA,44,15,24,39,1099,1099,2,2,3,6,2,-2,-2,0,593,18,6,1,0.5344495
"595",1,30,120,105,1,NA,NA,44,15,24,39,6199,6199,2,1,2,2,2,-2,2,0,594,676,6,1,0.4166204
"596",1,30,120,105,1,NA,NA,44,15,24,39,15899,15899,2,2,1,2,2,-2,-2,0,595,842,6,1,0.4501331
"597",1,30,120,105,1,NA,NA,44,15,24,39,9499,9499,2,2,1,2,-2,2,-2,1,596,731,5,1,0.4167957
"598",1,30,120,105,1,NA,NA,44,15,24,39,12099,12099,2,3,2,6,2,-2,2,0,597,208,6,1,0.3833802
"599",1,30,120,105,1,NA,NA,44,15,24,39,455,455,1,2,3,6,2,-2,-2,0,598,6,5,1,0.4167989
"600",1,30,120,105,1,NA,NA,44,15,24,39,12855,12855,1,1,2,2,2,-2,2,0,599,796,6,1,0.366788
"601",1,30,120,105,1,NA,NA,44,15,24,39,5699,5699,2,1,3,3,2,-2,-2,0,600,384,6,1,0.5006767
"602",1,30,120,105,1,NA,NA,44,15,24,39,1399,1399,2,3,2,6,2,-2,2,0,601,24,6,1,0.5167558
"603",1,30,120,105,1,NA,NA,44,15,24,39,9199,9199,2,1,3,3,2,-2,-2,0,602,440,5,1,0.4000507
"604",1,30,120,105,1,NA,NA,44,15,24,39,1855,1855,1,2,1,2,2,-2,-2,0,603,598,5,1,0.3834311
"605",1,30,120,105,1,NA,NA,44,15,24,39,4799,4799,2,2,3,6,2,-2,-2,0,604,90,5,1,0.433359
"606",1,30,120,105,1,NA,NA,44,15,24,39,10555,10555,1,3,2,6,-2,2,2,1,605,181,6,1,0.4167931
"607",1,30,120,105,1,NA,NA,44,15,24,39,10799,10799,2,3,1,3,2,-2,2,0,606,470,5,1,0.4666975
"608",1,30,120,105,1,NA,NA,44,15,24,39,10599,10599,2,2,1,2,2,-2,-2,0,607,750,5,1,0.4835357
"609",1,30,120,105,1,NA,NA,44,15,24,39,1199,1199,2,1,3,3,-2,2,-2,1,608,305,5,1,0.4501211
"610",1,30,120,105,1,NA,NA,44,15,24,39,7199,7199,2,2,3,6,2,-2,-2,0,609,130,6,1,0.4334521
"611",1,30,120,105,1,NA,NA,44,15,24,39,4899,4899,2,3,2,6,2,-2,2,0,610,92,6,1,0.4166872
"612",1,30,120,105,1,NA,NA,44,15,24,39,2799,2799,2,2,1,2,-2,2,-2,1,611,619,5,1,0.4334736
"613",1,30,120,105,1,NA,NA,44,15,24,39,10455,10455,1,3,1,3,2,-2,2,0,612,462,5,1,0.4666936
"614",1,30,120,105,1,NA,NA,44,15,24,39,2255,2255,1,2,1,2,2,-2,-2,0,613,606,5,1,0.383458
"615",1,30,120,105,1,NA,NA,44,15,24,39,6355,6355,1,1,3,3,-2,2,-2,1,614,397,5,1,0.3667427
"616",1,30,120,105,1,NA,NA,44,15,24,39,13855,13855,1,2,1,2,-2,2,-2,1,615,815,6,1,0.4501054
"617",1,30,120,105,1,NA,NA,44,15,24,39,6199,6199,2,1,3,3,2,-2,-2,0,616,392,6,1,0.5667047
"618",1,30,120,105,1,NA,NA,44,15,24,39,4399,4399,2,3,1,3,-2,2,2,1,617,371,5,1,0.5500251
"619",1,30,120,105,1,NA,NA,44,15,24,39,11399,11399,2,2,3,6,2,-2,-2,0,618,198,6,1,0.5833646
"620",1,30,120,105,1,NA,NA,44,15,24,39,10555,10555,1,1,3,3,-2,2,-2,1,619,465,6,1,0.4834802
"621",1,30,120,105,1,NA,NA,44,15,24,39,9699,9699,2,2,1,2,2,-2,-2,0,620,734,5,1,0.4001498
"622",1,30,120,105,1,NA,NA,44,15,24,39,16199,16199,2,3,2,6,-2,2,2,1,621,277,5,1,0.5166485
"623",1,30,120,105,1,NA,NA,44,15,24,39,3399,3399,2,1,2,2,2,-2,2,0,622,636,5,1,0.5001396
"624",1,30,120,105,1,NA,NA,44,15,24,39,13699,13699,2,1,3,3,2,-2,-2,0,623,528,5,1,0.4166688
"625",1,30,120,105,1,NA,NA,44,15,24,39,2155,2155,1,1,2,2,2,-2,2,0,624,604,6,1,0.3833609
"626",1,30,120,105,1,NA,NA,44,15,24,39,1799,1799,2,3,2,6,-2,2,2,1,625,29,6,1,0.3834585
"627",1,30,120,105,1,NA,NA,44,15,24,39,2655,2655,1,2,1,2,2,-2,-2,0,626,614,6,1,0.5337007
"628",1,30,120,105,1,NA,NA,44,15,24,39,1699,1699,2,2,1,2,-2,2,-2,1,627,595,5,1,0.4667589
"629",1,30,120,105,1,NA,NA,44,15,24,39,15299,15299,2,1,2,2,-2,2,2,1,628,837,5,1,0.4167878
"630",1,30,120,105,1,NA,NA,44,15,24,39,6899,6899,2,3,1,3,-2,2,2,1,629,407,5,1,0.4333326
"631",1,30,120,105,1,NA,NA,44,15,24,39,3899,3899,2,1,3,3,2,-2,-2,0,630,360,5,1,0.366688
"632",1,30,120,105,1,NA,NA,44,15,24,39,11099,11099,2,2,3,6,2,-2,-2,0,631,194,6,1,0.4500429
"633",1,30,120,105,1,NA,NA,44,15,24,39,6699,6699,2,2,3,6,2,-2,-2,0,632,118,6,1,0.4000331
"634",1,30,120,105,1,NA,NA,44,15,24,39,2399,2399,2,3,1,3,-2,2,2,1,633,327,6,1,0.3677983
"635",1,30,120,105,1,NA,NA,44,15,24,39,14355,14355,1,3,1,3,2,-2,2,0,634,542,5,1,0.4334299
"636",1,30,120,105,1,NA,NA,44,15,24,39,11799,11799,2,2,1,2,2,-2,-2,0,635,774,5,1,0.3667987
"637",1,30,120,105,1,NA,NA,44,15,24,39,13499,13499,2,3,1,3,-2,2,2,1,636,527,6,1,0.4001317
"638",1,30,120,105,1,NA,NA,44,15,24,39,4199,4199,2,2,3,6,2,-2,-2,0,637,82,5,1,0.3500169
"639",1,30,120,105,1,NA,NA,44,15,24,39,1699,1699,2,2,3,6,2,-2,-2,0,638,26,5,1,0.3333434
"640",1,30,120,105,1,NA,NA,44,15,24,39,9199,9199,2,3,2,6,2,-2,2,0,639,156,5,1,0.3666973
"641",1,30,120,105,1,NA,NA,44,15,24,39,1699,1699,2,3,1,3,-2,2,2,1,640,311,5,1,0.3833479
"642",1,30,120,105,1,NA,NA,44,15,24,39,12355,12355,1,1,3,3,-2,2,-2,1,641,501,6,1,0.3833467
"643",1,30,120,105,1,NA,NA,44,15,24,39,12855,12855,1,1,3,3,2,-2,-2,0,642,512,6,1,0.350119
"644",1,30,120,105,1,NA,NA,44,15,24,39,15799,15799,2,1,2,2,-2,2,2,1,643,841,5,1,0.40152
"645",1,30,120,105,1,NA,NA,44,15,24,39,11399,11399,2,2,1,2,2,-2,-2,0,644,766,6,1,0.3668086
"646",1,30,120,105,1,NA,NA,44,15,24,39,10155,10155,1,1,3,3,-2,2,-2,1,645,457,5,1,0.366784
"647",1,30,120,105,1,NA,NA,44,15,24,39,6699,6699,2,2,3,6,-2,2,-2,1,646,119,6,1,0.3834617
"648",1,30,120,105,1,NA,NA,44,15,24,39,3599,3599,2,2,1,2,2,-2,-2,0,647,638,6,1,0.3833682
"649",1,30,120,105,1,NA,NA,44,15,24,39,3899,3899,2,1,2,2,-2,2,2,1,648,645,5,1,0.4667236
"650",1,30,120,105,1,NA,NA,44,15,24,39,2155,2155,1,1,3,3,2,-2,-2,0,649,320,6,1,0.450036
"651",1,30,120,105,1,NA,NA,44,15,24,39,14355,14355,1,2,1,2,-2,2,-2,1,650,827,5,1,0.3834415
"652",1,30,120,105,1,NA,NA,44,15,24,39,6999,6999,2,3,1,3,-2,2,2,1,651,411,6,1,0.3667899
"653",1,30,120,105,1,NA,NA,44,15,24,39,13055,13055,1,1,2,2,2,-2,2,0,652,800,5,1,0.4500471
"654",1,30,120,105,1,NA,NA,44,15,24,39,13155,13155,1,2,1,2,2,-2,-2,0,653,802,6,1,0.450017
"655",1,30,120,105,1,NA,NA,44,15,24,39,1399,1399,2,1,3,3,-2,2,-2,1,654,309,6,1,0.4501378
"656",1,30,120,105,1,NA,NA,44,15,24,39,2099,2099,2,2,1,2,-2,2,-2,1,655,603,6,1,0.4514829
"657",1,30,120,105,1,NA,NA,44,15,24,39,199,199,2,1,2,2,-2,2,2,1,656,569,6,1,0.3833396
"658",1,30,120,105,1,NA,NA,44,15,24,39,8499,8499,2,2,1,2,2,-2,-2,0,657,718,6,1,0.4667721
"659",1,30,120,105,1,NA,NA,44,15,24,39,11799,11799,2,3,1,3,2,-2,2,0,658,490,5,1,0.3834142
"660",1,30,120,105,1,NA,NA,44,15,24,39,6955,6955,1,1,2,2,2,-2,2,0,659,692,5,1,0.383427
"661",1,30,120,105,1,NA,NA,44,15,24,39,12099,12099,2,1,3,3,-2,2,-2,1,660,493,6,1,0.4006863
"662",1,30,120,105,1,NA,NA,44,15,24,39,14299,14299,2,1,2,2,2,-2,2,0,661,824,6,1,0.4529932
"663",1,30,120,105,1,NA,NA,44,15,24,39,10999,10999,2,1,3,3,-2,2,-2,1,662,477,5,1,0.4001394
"664",1,30,120,105,1,NA,NA,44,15,24,39,12599,12599,2,2,3,6,2,-2,-2,0,663,222,6,1,0.5166214
"665",1,30,120,105,1,NA,NA,44,15,24,39,13499,13499,2,2,1,2,2,-2,-2,0,664,810,6,1,0.5000547
"666",1,30,120,105,1,NA,NA,44,15,24,39,4155,4155,1,3,2,6,-2,2,2,1,665,81,6,1,0.466773
"667",1,30,120,105,1,NA,NA,44,15,24,39,6899,6899,2,3,1,3,2,-2,2,0,666,406,5,1,0.4833212
"668",1,30,120,105,1,NA,NA,44,15,24,39,13299,13299,2,1,2,2,2,-2,2,0,667,808,5,1,0.4500103
"669",1,30,120,105,1,NA,NA,44,15,24,39,17255,17255,1,3,2,6,2,-2,2,0,668,280,6,1,0.466769
"670",1,30,120,105,1,NA,NA,44,15,24,39,4899,4899,2,1,3,3,-2,2,-2,1,669,377,6,1,0.9333366
"671",1,30,120,105,1,NA,NA,44,15,24,39,10099,10099,2,2,1,2,2,-2,-2,0,670,738,5,1,0.3667876
"672",1,30,120,105,1,NA,NA,44,15,24,39,13055,13055,1,1,3,3,-2,2,-2,1,671,517,5,1,0.4000071
"673",1,30,120,105,1,NA,NA,44,15,24,39,12099,12099,2,1,2,2,-2,2,2,1,672,777,6,1,0.3666459
"674",1,30,120,105,1,NA,NA,44,15,24,39,10355,10355,1,1,2,2,2,-2,2,0,673,744,6,1,0.3507711
"675",1,30,120,105,1,NA,NA,44,15,24,39,17355,17355,1,3,1,3,2,-2,2,0,674,566,5,1,0.4334084
"676",1,30,120,105,1,NA,NA,44,15,24,39,14499,14499,2,3,1,3,-2,2,2,1,675,547,6,1,0.3500319
"677",1,30,120,105,1,NA,NA,44,15,24,39,12799,12799,2,3,1,3,-2,2,2,1,676,511,6,1,0.3834008
"678",1,30,120,105,1,NA,NA,44,15,24,39,999,999,2,1,3,3,-2,2,-2,1,677,301,5,1,0.3334538
"679",1,30,120,105,1,NA,NA,44,15,24,39,11599,11599,2,1,2,2,2,-2,2,0,678,768,6,0,0.3501381
"680",1,30,120,105,1,NA,NA,44,15,24,39,10155,10155,1,1,2,2,2,-2,2,0,679,740,5,1,0.4500369
"681",1,30,120,105,1,NA,NA,44,15,24,39,7399,7399,2,2,3,6,-2,2,-2,1,680,135,5,0,0.3834783
"682",1,30,120,105,1,NA,NA,44,15,24,39,1255,1255,1,2,3,6,2,-2,-2,0,681,22,6,1,0.5000221
"683",1,30,120,105,1,NA,NA,44,15,24,39,8099,8099,2,1,2,2,-2,2,2,1,682,713,5,1,0.3833348
"684",1,30,120,105,1,NA,NA,44,15,24,39,12155,12155,1,2,1,2,-2,2,-2,1,683,779,5,1,0.4167735
"685",1,30,120,105,1,NA,NA,44,15,24,39,8799,8799,2,2,3,6,2,-2,-2,0,684,154,6,1,0.4833338
"686",1,30,120,105,1,NA,NA,44,15,24,39,8399,8399,2,3,2,6,2,-2,2,0,685,148,5,1,0.383368
"687",1,30,120,105,1,NA,NA,44,15,24,39,8099,8099,2,3,2,6,-2,2,2,1,686,145,5,1,0.3833508
"688",1,30,120,105,1,NA,NA,44,15,24,39,13899,13899,2,3,2,6,-2,2,2,1,687,249,6,1,0.5000621
"689",1,30,120,105,1,NA,NA,44,15,24,39,5699,5699,2,1,2,2,-2,2,2,1,688,669,6,1,0.3668127
"690",1,30,120,105,1,NA,NA,44,15,24,39,5899,5899,2,1,2,2,-2,2,2,1,689,673,6,1,0.5000399
"691",1,30,120,105,1,NA,NA,44,15,24,39,15299,15299,2,3,2,6,2,-2,2,0,690,268,5,1,0.4500117
"692",1,30,120,105,1,NA,NA,44,15,24,39,4899,4899,2,1,2,2,-2,2,2,1,691,661,6,1,0.5333759
"693",1,30,120,105,1,NA,NA,44,15,24,39,11199,11199,2,1,2,2,-2,2,2,1,692,765,5,1,0.4667114
"694",1,30,120,105,1,NA,NA,44,15,24,39,9599,9599,2,1,3,3,2,-2,-2,0,693,448,6,1,0.4667752
"695",1,30,120,105,1,NA,NA,44,15,24,39,2899,2899,2,3,2,6,2,-2,2,0,694,52,5,0,0.4834116
"696",1,30,120,105,1,NA,NA,44,15,24,39,6899,6899,2,2,1,2,-2,2,-2,1,695,691,5,1,0.4681214
"697",1,30,120,105,1,NA,NA,44,15,24,39,16299,16299,2,2,1,2,2,-2,-2,0,696,846,6,1,0.40005
"698",1,30,120,105,1,NA,NA,44,15,24,39,6355,6355,1,3,2,6,2,-2,2,0,697,112,5,1,0.450067
"699",1,30,120,105,1,NA,NA,44,15,24,39,7199,7199,2,2,1,2,2,-2,-2,0,698,698,6,1,0.4500804
"700",1,30,120,105,1,NA,NA,44,15,24,39,14499,14499,2,2,3,6,2,-2,-2,0,699,262,6,1,0.6180923
"701",1,30,120,105,1,NA,NA,44,15,24,39,8699,8699,2,1,2,2,-2,2,2,1,700,721,5,1,0.4667876
"702",1,30,120,105,1,NA,NA,44,15,24,39,4999,4999,2,3,1,3,-2,2,2,1,701,379,5,1,0.4166299
"703",1,30,120,105,1,NA,NA,44,15,24,39,3699,3699,2,1,3,3,2,-2,-2,0,702,356,5,1,0.4000266
"704",1,30,120,105,1,NA,NA,44,15,24,39,11399,11399,2,3,1,3,-2,2,2,1,703,483,6,1,0.4333527
"705",1,30,120,105,1,NA,NA,44,15,24,39,7099,7099,2,3,2,6,-2,2,2,1,704,129,5,1,0.4667446
"706",1,30,120,105,1,NA,NA,44,15,24,39,8699,8699,2,3,2,6,-2,2,2,1,705,153,5,1,0.50013
"707",1,30,120,105,1,NA,NA,44,15,24,39,15299,15299,2,3,2,6,-2,2,2,1,706,269,5,1,0.4340518
"708",1,30,120,105,1,NA,NA,44,15,24,39,299,299,2,2,1,2,-2,2,-2,1,707,571,5,1,0.4834163
"709",1,30,120,105,1,NA,NA,44,15,24,39,13699,13699,2,1,2,2,2,-2,2,0,708,812,5,1,0.4334164
"710",1,30,120,105,1,NA,NA,44,15,24,39,2255,2255,1,2,3,6,-2,2,-2,1,709,39,5,1,0.3834408
"711",1,30,120,105,1,NA,NA,44,15,24,39,16199,16199,2,1,3,3,2,-2,-2,0,710,560,5,1,0.4000231
"712",1,30,120,105,1,NA,NA,44,15,24,39,9499,9499,2,2,1,2,2,-2,-2,0,711,730,5,1,0.4666864
"713",1,30,120,105,1,NA,NA,44,15,24,39,8799,8799,2,2,1,2,2,-2,-2,0,712,722,6,1,0.4333558
"714",1,30,120,105,1,NA,NA,44,15,24,39,2655,2655,1,3,1,3,-2,2,2,1,713,331,6,1,0.4000442
"715",1,30,120,105,1,NA,NA,44,15,24,39,14199,14199,2,2,3,6,-2,2,-2,1,714,255,5,1,0.3333689
"716",1,30,120,105,1,NA,NA,44,15,24,39,10099,10099,2,2,3,6,-2,2,-2,1,715,171,5,1,0.3682835
"717",1,30,120,105,1,NA,NA,44,15,24,39,14699,14699,2,1,2,2,-2,2,2,1,716,833,6,0,0.3167449
"718",1,30,120,105,1,NA,NA,44,15,24,39,399,399,2,1,2,2,-2,2,2,1,717,573,6,1,0.4500268
"719",1,30,120,105,1,NA,NA,44,15,24,39,8499,8499,2,2,3,6,2,-2,-2,0,718,150,6,1,0.4333671
"720",1,30,120,105,1,NA,NA,44,15,24,39,399,399,2,3,2,6,2,-2,2,0,719,4,6,1,0.4334375
"721",1,30,120,105,1,NA,NA,44,15,24,39,1699,1699,2,2,3,6,-2,2,-2,1,720,27,5,1,0.3334111
"722",1,30,120,105,1,NA,NA,44,15,24,39,6299,6299,2,2,3,6,-2,2,-2,1,721,111,5,1,0.3999989
"723",1,30,120,105,1,NA,NA,44,15,24,39,10699,10699,2,1,2,2,-2,2,2,1,722,753,6,1,0.3679366
"724",1,30,120,105,1,NA,NA,44,15,24,39,299,299,2,3,1,3,-2,2,2,1,723,287,5,1,0.3666389
"725",1,30,120,105,1,NA,NA,44,15,24,39,11199,11199,2,3,2,6,2,-2,2,0,724,196,6,0,0.3666568
"726",1,30,120,105,1,NA,NA,44,15,24,39,1199,1199,2,1,2,2,-2,2,2,1,725,589,5,1,0.4181332
"727",1,30,120,105,1,NA,NA,44,15,24,39,2099,2099,2,2,1,2,2,-2,-2,0,726,602,6,1,0.4667885
"728",1,30,120,105,1,NA,NA,44,15,24,39,13299,13299,2,3,2,6,2,-2,2,0,727,240,5,1,0.4834031
"729",1,30,120,105,1,NA,NA,44,15,24,39,2255,2255,1,3,1,3,-2,2,2,1,728,323,5,1,0.5000276
"730",1,30,120,105,1,NA,NA,44,15,24,39,4299,4299,2,3,2,6,-2,2,2,1,729,85,6,1,0.5673907
"731",1,30,120,105,1,NA,NA,44,15,24,39,7399,7399,2,3,1,3,2,-2,2,0,730,418,6,1,0.4833556
"732",1,30,120,105,1,NA,NA,44,15,24,39,11699,11699,2,2,1,2,-2,2,-2,1,731,771,6,1,0.5166742
"733",1,30,120,105,1,NA,NA,44,15,24,39,12599,12599,2,2,3,6,-2,2,-2,1,732,223,6,1,0.567438
"734",1,30,120,105,1,NA,NA,44,15,24,39,7399,7399,2,2,3,6,2,-2,-2,0,733,134,6,1,0.4333955
"735",1,30,120,105,1,NA,NA,44,15,24,39,4599,4599,2,1,3,3,-2,2,-2,1,734,373,6,1,0.4167712
"736",1,30,120,105,1,NA,NA,44,15,24,39,199,199,2,1,3,3,-2,2,-2,1,735,285,6,1,0.4833443
"737",1,30,120,105,1,NA,NA,44,15,24,39,7999,7999,2,2,3,6,2,-2,-2,0,736,142,6,1,0.416693
"738",1,30,120,105,1,NA,NA,44,15,24,39,14199,14199,2,3,1,3,2,-2,2,0,737,538,5,1,0.3834099
"739",1,30,120,105,1,NA,NA,44,15,24,39,4099,4099,2,2,3,6,-2,2,-2,1,738,79,6,1,0.3834763
"740",1,30,120,105,1,NA,NA,44,15,24,39,2655,2655,1,2,3,6,2,-2,-2,0,739,46,6,1,0.4167422
"741",1,30,120,105,1,NA,NA,44,15,24,39,10455,10455,1,3,1,3,-2,2,2,1,740,463,5,1,0.4667074
"742",1,30,120,105,1,NA,NA,44,15,24,39,1255,1255,1,3,1,3,-2,2,2,1,741,307,6,1,0.4167804
"743",1,30,120,105,1,NA,NA,44,15,24,39,3699,3699,2,1,2,2,-2,2,2,1,742,641,5,1,0.4833724
"744",1,30,120,105,1,NA,NA,44,15,24,39,9699,9699,2,2,1,2,-2,2,-2,1,743,735,5,1,0.4666725
"745",1,30,120,105,1,NA,NA,44,15,24,39,9899,9899,2,1,3,3,2,-2,-2,0,744,452,6,1,0.4189352
"746",1,30,120,105,1,NA,NA,44,15,24,39,10855,10855,1,1,3,3,2,-2,-2,0,745,472,5,1,0.4666434
"747",1,30,120,105,1,NA,NA,44,15,24,39,6299,6299,2,2,3,6,2,-2,-2,0,746,110,5,1,0.3668373
"748",1,30,120,105,1,NA,NA,44,15,24,39,8199,8199,2,2,3,6,2,-2,-2,0,747,146,6,1,0.4500019
"749",1,30,120,105,1,NA,NA,44,15,24,39,10799,10799,2,2,1,2,2,-2,-2,0,748,754,5,1,0.4000612
"750",1,30,120,105,1,NA,NA,44,15,24,39,11755,11755,1,1,2,2,-2,2,2,1,749,773,6,1,0.4667119
"751",1,30,120,105,1,NA,NA,44,15,24,39,10355,10355,1,3,2,6,2,-2,2,0,750,176,6,1,0.4667803
"752",1,30,120,105,1,NA,NA,44,15,24,39,12099,12099,2,3,2,6,-2,2,2,1,751,209,5,0,0.5014672
"753",1,30,120,105,1,NA,NA,44,15,24,39,2255,2255,1,2,1,2,-2,2,-2,1,752,607,5,1,0.4167815
"754",1,30,120,105,1,NA,NA,44,15,24,39,2155,2155,1,3,2,6,2,-2,2,0,753,36,6,1,0.4000226
"755",1,30,120,105,1,NA,NA,44,15,24,39,3899,3899,2,3,2,6,-2,2,2,1,754,77,5,1,0.4667696
"756",1,30,120,105,1,NA,NA,44,15,24,39,12355,12355,1,3,2,6,2,-2,2,0,755,216,6,1,0.3673293
"757",1,30,120,105,1,NA,NA,44,15,24,39,11199,11199,2,1,3,3,2,-2,-2,0,756,480,5,1,0.3666331
"758",1,30,120,105,1,NA,NA,44,15,24,39,7799,7799,2,1,3,3,2,-2,-2,0,757,424,5,1,0.368742
"759",1,30,120,105,1,NA,NA,44,15,24,39,9399,9399,2,1,2,2,-2,2,2,1,758,729,6,1,0.416659
"760",1,30,120,105,1,NA,NA,44,15,24,39,12199,12199,2,3,2,6,-2,2,2,1,759,213,5,1,0.433447
"761",1,30,120,105,1,NA,NA,44,15,24,39,12999,12999,2,2,3,6,2,-2,-2,0,760,230,5,1,0.4167503
"762",1,30,120,105,1,NA,NA,44,15,24,39,10555,10555,1,1,2,2,-2,2,2,1,761,749,6,1,0.4501418
"763",1,30,120,105,1,NA,NA,44,15,24,39,17355,17355,1,3,1,3,-2,2,2,1,762,567,5,1,0.416694
"764",1,30,120,105,1,NA,NA,44,15,24,39,8099,8099,2,3,2,6,2,-2,2,0,763,144,5,1,0.4500171
"765",1,30,120,105,1,NA,NA,44,15,24,39,1099,1099,2,3,1,3,-2,2,2,1,764,303,6,1,0.4000975
"766",1,30,120,105,1,NA,NA,44,15,24,39,899,899,2,3,1,3,2,-2,2,0,765,298,6,1,0.3502774
"767",1,30,120,105,1,NA,NA,44,15,24,39,5299,5299,2,3,2,6,-2,2,2,1,766,97,6,1,0.3833525
"768",1,30,120,105,1,NA,NA,44,15,24,39,1099,1099,2,3,1,3,2,-2,2,0,767,302,6,1,0.4500758
"769",1,30,120,105,1,NA,NA,44,15,24,39,12355,12355,1,1,2,2,-2,2,2,1,768,785,6,1,0.3342131
"770",1,30,120,105,1,NA,NA,44,15,24,39,4799,4799,2,2,1,2,-2,2,-2,1,769,659,5,1,0.4168266
"771",1,30,120,105,1,NA,NA,44,15,24,39,4599,4599,2,3,2,6,-2,2,2,1,770,89,6,1,0.3334458
"772",1,30,120,105,1,NA,NA,44,15,24,39,899,899,2,3,1,3,-2,2,2,1,771,299,6,1,0.3666964
"773",1,30,120,105,1,NA,NA,44,15,24,39,5899,5899,2,3,2,6,-2,2,2,1,772,105,6,1,0.3333626
"774",1,30,120,105,1,NA,NA,44,15,24,39,16299,16299,2,3,1,3,2,-2,2,0,773,562,6,1,0.3500461
"775",1,30,120,105,1,NA,NA,44,15,24,39,4155,4155,1,1,3,3,-2,2,-2,1,774,365,6,1,0.4333527
"776",1,30,120,105,1,NA,NA,44,15,24,39,12355,12355,1,1,3,3,2,-2,-2,0,775,500,6,1,0.3333773
"777",1,30,120,105,1,NA,NA,44,15,24,39,6099,6099,2,3,1,3,2,-2,2,0,776,390,5,1,0.4167323
"778",1,30,120,105,1,NA,NA,44,15,24,39,7099,7099,2,1,3,3,2,-2,-2,0,777,412,6,0,0.4000239
"779",1,30,120,105,1,NA,NA,44,15,24,39,3699,3699,2,3,2,6,2,-2,2,0,778,72,5,1,0.4000551
"780",1,30,120,105,1,NA,NA,44,15,24,39,6399,6399,2,3,1,3,2,-2,2,0,779,398,6,1,0.4010923
"781",1,30,120,105,1,NA,NA,44,15,24,39,14399,14399,2,1,3,3,2,-2,-2,0,780,544,5,1,0.4001426
"782",1,30,120,105,1,NA,NA,44,15,24,39,2699,2699,2,1,3,3,2,-2,-2,0,781,332,6,1,0.5166686
"783",1,30,120,105,1,NA,NA,44,15,24,39,11799,11799,2,2,1,2,-2,2,-2,1,782,775,5,1,0.3510932
"784",1,30,120,105,1,NA,NA,44,15,24,39,7699,7699,2,3,1,3,2,-2,2,0,783,422,6,1,0.3666793
"785",1,30,120,105,1,NA,NA,44,15,24,39,3155,3155,1,1,3,3,-2,2,-2,1,784,345,6,1,0.3501637
"786",1,30,120,105,1,NA,NA,44,15,24,39,11099,11099,2,2,1,2,2,-2,-2,0,785,762,6,1,0.3683553
"787",1,30,120,105,1,NA,NA,44,15,24,39,4155,4155,1,1,2,2,-2,2,2,1,786,649,6,1,0.3666532
"788",1,30,120,105,1,NA,NA,44,15,24,39,6599,6599,2,3,2,6,-2,2,2,1,787,117,5,1,0.4333242
"789",1,30,120,105,1,NA,NA,44,15,24,39,2899,2899,2,1,2,2,2,-2,2,0,788,620,6,1,0.4334612
"790",1,30,120,105,1,NA,NA,44,15,24,39,16199,16199,2,3,2,6,2,-2,2,0,789,276,5,1,0.400141
"791",1,30,120,105,1,NA,NA,44,15,24,39,11599,11599,2,1,3,3,-2,2,-2,1,790,485,5,1,0.3833822
"792",1,30,120,105,1,NA,NA,44,15,24,39,3299,3299,2,1,2,2,2,-2,2,0,791,632,6,1,0.3501471
"793",1,30,120,105,1,NA,NA,44,15,24,39,10555,10555,1,3,2,6,2,-2,2,0,792,180,6,1,0.3834179
"794",1,30,120,105,1,NA,NA,44,15,24,39,6299,6299,2,2,1,2,2,-2,-2,0,793,678,5,1,0.3166511
"795",1,30,120,105,1,NA,NA,44,15,24,39,10799,10799,2,3,1,3,-2,2,2,1,794,471,6,0,0.3333396
"796",1,30,120,105,1,NA,NA,44,15,24,39,9499,9499,2,3,1,3,-2,2,2,1,795,447,5,1,0.4334713
"797",1,30,120,105,1,NA,NA,44,15,24,39,2899,2899,2,1,3,3,2,-2,-2,0,796,336,6,1,0.3667155
"798",1,30,120,105,1,NA,NA,44,15,24,39,799,799,2,1,3,3,2,-2,-2,0,797,296,5,1,0.3333743
"799",1,30,120,105,1,NA,NA,44,15,24,39,6899,6899,2,2,1,2,2,-2,-2,0,798,690,5,1,0.3833573
"800",1,30,120,105,1,NA,NA,44,15,24,39,799,799,2,1,3,3,-2,2,-2,1,799,297,5,1,0.4174846
"801",1,30,120,105,1,NA,NA,44,15,24,39,13055,13055,1,3,2,6,-2,2,2,1,800,233,5,1,0.5000251
"802",1,30,120,105,1,NA,NA,44,15,24,39,12199,12199,2,1,2,2,-2,2,2,1,801,781,5,1,0.366763
"803",1,30,120,105,1,NA,NA,44,15,24,39,6299,6299,2,3,1,3,-2,2,2,1,802,395,5,1,0.4012688
"804",1,30,120,105,1,NA,NA,44,15,24,39,5299,5299,2,3,2,6,2,-2,2,0,803,96,6,1,0.4834245
"805",1,30,120,105,1,NA,NA,44,15,24,39,3699,3699,2,1,3,3,-2,2,-2,1,804,357,5,1,0.3834087
"806",1,30,120,105,1,NA,NA,44,15,24,39,7199,7199,2,2,3,6,-2,2,-2,1,805,131,6,1,0.4500013
"807",1,30,120,105,1,NA,NA,44,15,24,39,10699,10699,2,3,2,6,-2,2,2,1,806,185,6,1,0.3502211
"808",1,30,120,105,1,NA,NA,44,15,24,39,7299,7299,2,1,2,2,-2,2,2,1,807,701,5,1,0.4500193
"809",1,30,120,105,1,NA,NA,44,15,24,39,14499,14499,2,2,3,6,-2,2,-2,1,808,263,6,1,0.4166988
"810",1,30,120,105,1,NA,NA,44,15,24,39,8699,8699,2,1,2,2,2,-2,2,0,809,720,5,1,0.4167809
"811",1,30,120,105,1,NA,NA,44,15,24,39,11799,11799,2,2,3,6,-2,2,-2,1,810,207,5,1,0.4334271
"812",1,30,120,105,1,NA,NA,44,15,24,39,3599,3599,2,3,1,3,-2,2,2,1,811,355,6,1,0.3834629
"813",1,30,120,105,1,NA,NA,44,15,24,39,6599,6599,2,1,2,2,-2,2,2,1,812,685,5,1,0.4333581
"814",1,30,120,105,1,NA,NA,44,15,24,39,3799,3799,2,3,1,3,2,-2,2,0,813,358,6,1,0.450034
"815",1,30,120,105,1,NA,NA,44,15,24,39,7699,7699,2,2,1,2,2,-2,-2,0,814,706,6,1,0.4167058
"816",1,30,120,105,1,NA,NA,44,15,24,39,11599,11599,2,3,2,6,-2,2,2,1,815,201,5,1,0.3668483
"817",1,30,120,105,1,NA,NA,44,15,24,39,2799,2799,2,3,1,3,-2,2,2,1,816,335,5,1,0.4166356
"818",1,30,120,105,1,NA,NA,44,15,24,39,9499,9499,2,3,1,3,2,-2,2,0,817,446,5,1,0.4001217
"819",1,30,120,105,1,NA,NA,44,15,24,39,6599,6599,2,1,2,2,2,-2,2,0,818,684,5,1,0.4167853
"820",1,30,120,105,1,NA,NA,44,15,24,39,3299,3299,2,1,3,3,-2,2,-2,1,819,349,6,1,0.4346392
"821",1,30,120,105,1,NA,NA,44,15,24,39,399,399,2,3,2,6,-2,2,2,1,820,5,6,1,0.3834737
"822",1,30,120,105,1,NA,NA,44,15,24,39,8699,8699,2,1,3,3,2,-2,-2,0,821,436,5,1,0.452743
"823",1,30,120,105,1,NA,NA,44,15,24,39,6299,6299,2,2,1,2,-2,2,-2,1,822,679,5,1,0.3504512
"824",1,30,120,105,1,NA,NA,44,15,24,39,6299,6299,2,3,1,3,2,-2,2,0,823,394,5,1,0.4001444
"825",1,30,120,105,1,NA,NA,44,15,24,39,299,299,2,2,1,2,2,-2,-2,0,824,570,5,1,0.3833745
"826",1,30,120,105,1,NA,NA,44,15,24,39,12299,12299,2,3,1,3,2,-2,2,0,825,498,6,1,0.4833694
"827",1,30,120,105,1,NA,NA,44,15,24,39,9399,9399,2,1,2,2,2,-2,2,0,826,728,6,1,0.3500121
"828",1,30,120,105,1,NA,NA,44,15,24,39,599,599,2,2,1,2,2,-2,-2,0,827,578,6,1,0.5833427
"829",1,30,120,105,1,NA,NA,44,15,24,39,8799,8799,2,3,1,3,-2,2,2,1,828,439,6,1,0.417691
"830",1,30,120,105,1,NA,NA,44,15,24,39,10355,10355,1,1,3,3,-2,2,-2,1,829,461,6,1,0.4000851
"831",1,30,120,105,1,NA,NA,44,15,24,39,12099,12099,2,1,3,3,2,-2,-2,0,830,492,6,1,0.4001097
"832",1,30,120,105,1,NA,NA,44,15,24,39,1855,1855,1,3,1,3,-2,2,2,1,831,315,5,1,0.4334056
"833",1,30,120,105,1,NA,NA,44,15,24,39,6955,6955,1,3,2,6,2,-2,2,0,832,124,5,1,0.4166529
"834",1,30,120,105,1,NA,NA,44,15,24,39,2155,2155,1,1,3,3,-2,2,-2,1,833,321,6,1,0.433379
"835",1,30,120,105,1,NA,NA,44,15,24,39,1199,1199,2,1,3,3,2,-2,-2,0,834,304,5,1,0.3667775
"836",1,30,120,105,1,NA,NA,44,15,24,39,10199,10199,2,2,3,6,-2,2,-2,1,835,175,6,1,0.4666608
"837",1,30,120,105,1,NA,NA,44,15,24,39,2955,2955,1,2,3,6,-2,2,-2,1,836,55,5,1,0.383343
"838",1,30,120,105,1,NA,NA,44,15,24,39,9599,9599,2,1,2,2,2,-2,2,0,837,732,6,1,0.433423
"839",1,30,120,105,1,NA,NA,44,15,24,39,399,399,2,1,3,3,2,-2,-2,0,838,288,6,1,0.4001461
"840",1,30,120,105,1,NA,NA,44,15,24,39,12699,12699,2,1,2,2,2,-2,2,0,839,792,5,1,0.4500281
"841",1,30,120,105,1,NA,NA,44,15,24,39,499,499,2,1,3,3,-2,2,-2,1,840,293,5,1,0.3499681
"842",1,30,120,105,1,NA,NA,44,15,24,39,14399,14399,2,3,2,6,2,-2,2,0,841,260,5,1,0.433427
"843",1,30,120,105,1,NA,NA,44,15,24,39,15099,15099,2,2,3,6,2,-2,-2,0,842,266,6,1,0.4334202
"844",1,30,120,105,1,NA,NA,44,15,24,39,6099,6099,2,3,1,3,-2,2,2,1,843,391,5,1,0.3833365
"845",1,30,120,105,1,NA,NA,44,15,24,39,10999,10999,2,1,2,2,-2,2,2,1,844,761,5,1,0.3500364
"846",1,30,120,105,1,NA,NA,44,15,24,39,4799,4799,2,3,1,3,2,-2,2,0,845,374,5,1,0.366797
"847",1,30,120,105,1,NA,NA,44,15,24,39,10455,10455,1,2,1,2,-2,2,-2,1,846,747,5,1,0.3667813
"848",1,30,120,105,1,NA,NA,44,15,24,39,10199,10199,2,2,3,6,2,-2,-2,0,847,174,6,1,0.416609
"849",1,30,120,105,1,NA,NA,44,15,24,39,7999,7999,2,2,1,2,2,-2,-2,0,848,710,6,1,0.4339387
"850",1,30,120,105,1,NA,NA,44,15,24,39,399,399,2,1,2,2,2,-2,2,0,849,572,6,1,0.4361305
"851",1,30,120,105,1,NA,NA,44,15,24,39,12499,12499,2,3,1,3,2,-2,2,0,850,502,5,1,0.4001
"852",1,30,120,105,1,NA,NA,44,15,24,39,3199,3199,2,3,1,3,2,-2,2,0,851,346,5,1,0.4002519
"853",2,30,50,42,1,NA,NA,36,11,45,51,6999,6999,2,2,3,6,2,-2,-2,0,0,127,6,1,1.4166068
"854",2,30,50,42,1,NA,NA,36,11,45,51,5599,5599,2,2,3,6,2,-2,-2,0,1,99,5,1,0.7000012
"855",2,30,50,42,1,NA,NA,36,11,45,51,13499,13499,2,2,1,2,-2,2,-2,1,2,810,6,1,1.534756
"856",2,30,50,42,1,NA,NA,36,11,45,51,1799,1799,2,3,2,6,2,-2,2,0,3,29,6,1,0.8334486
"857",2,30,50,42,1,NA,NA,36,11,45,51,5299,5299,2,1,3,3,2,-2,-2,0,4,381,6,1,0.7001787
"858",2,30,50,42,1,NA,NA,36,11,45,51,9255,9255,1,2,3,6,2,-2,-2,0,5,159,6,1,0.6000413
"859",2,30,50,42,1,NA,NA,36,11,45,51,12699,12699,2,3,2,6,2,-2,2,0,6,225,5,1,0.6333667
"860",2,30,50,42,1,NA,NA,36,11,45,51,10799,10799,2,2,1,2,-2,2,-2,1,7,754,5,1,0.6501366
"861",2,30,50,42,1,NA,NA,36,11,45,51,15899,15899,2,2,1,2,-2,2,-2,1,8,842,6,1,0.6166403
"862",2,30,50,42,1,NA,NA,36,11,45,51,11755,11755,1,3,2,6,-2,2,2,1,9,204,6,1,0.5001443
"863",2,30,50,42,1,NA,NA,36,11,45,51,2155,2155,1,1,3,3,-2,2,-2,1,10,320,6,1,0.5667085
"864",2,30,50,42,1,NA,NA,36,11,45,51,10999,10999,2,1,2,2,2,-2,2,0,11,761,5,1,0.9167673
"865",2,30,50,42,1,NA,NA,36,11,45,51,11099,11099,2,2,3,6,2,-2,-2,0,12,195,6,1,0.716665
"866",2,30,50,42,1,NA,NA,36,11,45,51,11699,11699,2,3,1,3,2,-2,2,0,13,487,6,1,0.8000938
"867",2,30,50,42,1,NA,NA,36,11,45,51,13055,13055,1,3,2,6,-2,2,2,1,14,232,5,1,0.6334153
"868",2,30,50,42,1,NA,NA,36,11,45,51,3399,3399,2,1,3,3,-2,2,-2,1,15,352,5,1,0.4334168
"869",2,30,50,42,1,NA,NA,36,11,45,51,499,499,2,3,2,6,-2,2,2,1,16,8,5,1,0.6999981
"870",2,30,50,42,1,NA,NA,36,11,45,51,4399,4399,2,2,1,2,-2,2,-2,1,17,654,5,1,0.468674
"871",2,30,50,42,1,NA,NA,36,11,45,51,4099,4099,2,3,1,3,-2,2,2,1,18,362,6,1,0.4667944
"872",2,30,50,42,1,NA,NA,36,11,45,51,4999,4999,2,2,3,6,-2,2,-2,1,19,94,5,1,0.4500218
"873",2,30,50,42,1,NA,NA,36,11,45,51,15099,15099,2,3,1,3,2,-2,2,0,20,551,6,1,0.4333606
"874",2,30,50,42,1,NA,NA,36,11,45,51,9599,9599,2,3,2,6,-2,2,2,1,21,164,6,1,0.4500449
"875",2,30,50,42,1,NA,NA,36,11,45,51,10999,10999,2,1,2,2,-2,2,2,1,22,760,5,1,0.56678
"876",2,30,50,42,1,NA,NA,36,11,45,51,8399,8399,2,1,2,2,2,-2,2,0,23,717,5,1,0.4667243
"877",2,30,50,42,1,NA,NA,36,11,45,51,1199,1199,2,3,2,6,2,-2,2,0,24,21,5,1,0.4833727
"878",2,30,50,42,1,NA,NA,36,11,45,51,299,299,2,2,1,2,2,-2,-2,0,25,571,5,1,0.466784
"879",2,30,50,42,1,NA,NA,36,11,45,51,599,599,2,3,1,3,-2,2,2,1,26,294,6,1,0.4667856
"880",2,30,50,42,1,NA,NA,36,11,45,51,10455,10455,1,2,1,2,-2,2,-2,1,27,746,5,1,0.7166904
"881",2,30,50,42,1,NA,NA,36,11,45,51,13299,13299,2,1,3,3,-2,2,-2,1,28,524,5,1,0.599949
"882",2,30,50,42,1,NA,NA,36,11,45,51,17355,17355,1,3,1,3,-2,2,2,1,29,566,5,1,0.4334557
"883",2,30,50,42,1,NA,NA,36,11,45,51,10455,10455,1,2,1,2,2,-2,-2,0,30,747,5,1,0.4000451
"884",2,30,50,42,1,NA,NA,36,11,45,51,12855,12855,1,1,2,2,-2,2,2,1,31,796,6,1,0.4833874
"885",2,30,50,42,1,NA,NA,36,11,45,51,6599,6599,2,3,2,6,2,-2,2,0,32,117,5,1,0.7333734
"886",2,30,50,42,1,NA,NA,36,11,45,51,4999,4999,2,2,3,6,2,-2,-2,0,33,95,5,1,0.4667207
"887",2,30,50,42,1,NA,NA,36,11,45,51,10099,10099,2,2,1,2,-2,2,-2,1,34,738,5,1,0.3833756
"888",2,30,50,42,1,NA,NA,36,11,45,51,7999,7999,2,2,1,2,2,-2,-2,0,35,711,6,1,0.5833643
"889",2,30,50,42,1,NA,NA,36,11,45,51,2299,2299,2,1,3,3,-2,2,-2,1,36,324,5,1,0.4167964
"890",2,30,50,42,1,NA,NA,36,11,45,51,16299,16299,2,2,1,2,-2,2,-2,1,37,846,6,1,0.5332834
"891",2,30,50,42,1,NA,NA,36,11,45,51,1199,1199,2,1,3,3,-2,2,-2,1,38,304,5,1,0.4666933
"892",2,30,50,42,1,NA,NA,36,11,45,51,11755,11755,1,3,2,6,2,-2,2,0,39,205,6,1,0.4673255
"893",2,30,50,42,1,NA,NA,36,11,45,51,6999,6999,2,2,1,2,2,-2,-2,0,40,695,6,1,0.6333695
"894",2,30,50,42,1,NA,NA,36,11,45,51,1099,1099,2,2,1,2,-2,2,-2,1,41,586,6,1,0.4333451
"895",2,30,50,42,1,NA,NA,36,11,45,51,11699,11699,2,2,1,2,2,-2,-2,0,42,771,6,1,0.4833747
"896",2,30,50,42,1,NA,NA,36,11,45,51,8199,8199,2,2,1,2,2,-2,-2,0,43,715,6,1,0.4334709
"897",2,30,50,42,1,NA,NA,36,11,45,51,4599,4599,2,1,3,3,2,-2,-2,0,44,373,6,1,0.5001343
"898",2,30,50,42,1,NA,NA,36,11,45,51,11399,11399,2,2,3,6,2,-2,-2,0,45,199,6,1,0.450038
"899",2,30,50,42,1,NA,NA,36,11,45,51,9499,9499,2,3,1,3,-2,2,2,1,46,446,5,1,0.6500242
"900",2,30,50,42,1,NA,NA,36,11,45,51,2655,2655,1,2,1,2,2,-2,-2,0,47,615,5,0,1.1500105
"901",2,30,50,42,1,NA,NA,36,11,45,51,10699,10699,2,3,2,6,-2,2,2,1,48,184,6,1,0.9500718
"902",2,30,50,42,1,NA,NA,36,11,45,51,14499,14499,2,2,1,2,2,-2,-2,0,49,831,6,1,0.4667949
"903",2,30,50,42,1,NA,NA,36,11,45,51,15299,15299,2,3,2,6,2,-2,2,0,50,269,5,1,0.5667011
"904",2,30,50,42,1,NA,NA,36,11,45,51,1255,1255,1,2,3,6,-2,2,-2,1,51,22,6,1,0.9832953
"905",2,30,50,42,1,NA,NA,36,11,45,51,9899,9899,2,3,2,6,-2,2,2,1,52,168,6,1,0.6500198
"906",2,30,50,42,1,NA,NA,36,11,45,51,5899,5899,2,1,2,2,2,-2,2,0,53,673,6,1,0.4667265
"907",2,30,50,42,1,NA,NA,36,11,45,51,4155,4155,1,3,2,6,-2,2,2,1,54,80,6,1,0.3667999
"908",2,30,50,42,1,NA,NA,36,11,45,51,12355,12355,1,3,2,6,-2,2,2,1,55,216,6,1,0.4666517
"909",2,30,50,42,1,NA,NA,36,11,45,51,15799,15799,2,3,2,6,2,-2,2,0,56,273,5,1,0.6341914
"910",2,30,50,42,1,NA,NA,36,11,45,51,2955,2955,1,3,1,3,-2,2,2,1,57,338,5,1,0.4167813
"911",2,30,50,42,1,NA,NA,36,11,45,51,6299,6299,2,2,1,2,-2,2,-2,1,58,678,5,1,0.4834448
"912",2,30,50,42,1,NA,NA,36,11,45,51,3799,3799,2,3,1,3,2,-2,2,0,59,359,6,1,0.4334581
"913",2,30,50,42,1,NA,NA,36,11,45,51,16299,16299,2,2,1,2,2,-2,-2,0,60,847,6,1,0.6833387
"914",2,30,50,42,1,NA,NA,36,11,45,51,14299,14299,2,1,2,2,2,-2,2,0,61,825,6,1,0.5833646
"915",2,30,50,42,1,NA,NA,36,11,45,51,10155,10155,1,3,2,6,2,-2,2,0,62,173,5,1,0.5334322
"916",2,30,50,42,1,NA,NA,36,11,45,51,2899,2899,2,1,3,3,2,-2,-2,0,63,337,6,1,0.7000177
"917",2,30,50,42,1,NA,NA,36,11,45,51,799,799,2,1,2,2,2,-2,2,0,64,581,5,1,0.4833942
"918",2,30,50,42,1,NA,NA,36,11,45,51,12099,12099,2,3,2,6,2,-2,2,0,65,209,6,1,0.9499782
"919",2,30,50,42,1,NA,NA,36,11,45,51,1855,1855,1,3,1,3,-2,2,2,1,66,314,5,1,0.5333262
"920",2,30,50,42,1,NA,NA,36,11,45,51,3355,3355,1,2,3,6,2,-2,-2,0,67,67,5,1,0.4501327
"921",2,30,50,42,1,NA,NA,36,11,45,51,1899,1899,2,1,2,2,-2,2,2,1,68,600,5,1,0.600019
"922",2,30,50,42,1,NA,NA,36,11,45,51,15799,15799,2,3,2,6,-2,2,2,1,69,272,5,1,1.1667818
"923",2,30,50,42,1,NA,NA,36,11,45,51,13499,13499,2,2,3,6,-2,2,-2,1,70,242,6,1,0.5334137
"924",2,30,50,42,1,NA,NA,36,11,45,51,799,799,2,3,2,6,-2,2,2,1,71,12,5,1,0.5001133
"925",2,30,50,42,1,NA,NA,36,11,45,51,8099,8099,2,3,2,6,2,-2,2,0,72,145,5,1,0.6167507
"926",2,30,50,42,1,NA,NA,36,11,45,51,8399,8399,2,3,2,6,-2,2,2,1,73,148,5,1,0.6666778
"927",2,30,50,42,1,NA,NA,36,11,45,51,2155,2155,1,1,3,3,2,-2,-2,0,74,321,6,1,0.5166924
"928",2,30,50,42,1,NA,NA,36,11,45,51,12155,12155,1,2,3,6,2,-2,-2,0,75,211,5,1,0.5834644
"929",2,30,50,42,1,NA,NA,36,11,45,51,3599,3599,2,2,3,6,-2,2,-2,1,76,70,6,1,0.5169434
"930",2,30,50,42,1,NA,NA,36,11,45,51,10599,10599,2,3,1,3,2,-2,2,0,77,467,5,1,0.6501156
"931",2,30,50,42,1,NA,NA,36,11,45,51,9899,9899,2,1,2,2,2,-2,2,0,78,737,6,1,1.2667928
"932",2,30,50,42,1,NA,NA,36,11,45,51,7099,7099,2,3,2,6,2,-2,2,0,79,129,5,1,0.7499915
"933",2,30,50,42,1,NA,NA,36,11,45,51,399,399,2,1,3,3,-2,2,-2,1,80,288,6,1,2.1001046
"934",2,30,50,42,1,NA,NA,36,11,45,51,6199,6199,2,1,3,3,2,-2,-2,0,81,393,6,1,0.4500012
"935",2,30,50,42,1,NA,NA,36,11,45,51,11799,11799,2,3,1,3,2,-2,2,0,82,491,5,1,0.5834279
"936",2,30,50,42,1,NA,NA,36,11,45,51,2299,2299,2,1,2,2,-2,2,2,1,83,608,5,1,0.7501381
"937",2,30,50,42,1,NA,NA,36,11,45,51,4199,4199,2,2,1,2,2,-2,-2,0,84,651,5,1,0.5666846
"938",2,30,50,42,1,NA,NA,36,11,45,51,17355,17355,1,2,1,2,-2,2,-2,1,85,850,5,1,0.5166368
"939",2,30,50,42,1,NA,NA,36,11,45,51,4099,4099,2,2,1,2,-2,2,-2,1,86,646,6,1,0.6667867
"940",2,30,50,42,1,NA,NA,36,11,45,51,7599,7599,2,1,2,2,2,-2,2,0,87,705,5,1,1.1167892
"941",2,30,50,42,1,NA,NA,36,11,45,51,8099,8099,2,1,2,2,-2,2,2,1,88,712,5,1,0.6500463
"942",2,30,50,42,1,NA,NA,36,11,45,51,455,455,1,3,1,3,2,-2,2,0,89,291,5,1,0.5667834
"943",2,30,50,42,1,NA,NA,36,11,45,51,5899,5899,2,3,2,6,2,-2,2,0,90,105,6,1,0.5167787
"944",2,30,50,42,1,NA,NA,36,11,45,51,5699,5699,2,3,2,6,-2,2,2,1,91,100,6,1,0.5000334
"945",2,30,50,42,1,NA,NA,36,11,45,51,6955,6955,1,3,2,6,2,-2,2,0,92,125,5,1,0.5004511
"946",2,30,50,42,1,NA,NA,36,11,45,51,2155,2155,1,1,2,2,-2,2,2,1,93,604,6,1,0.4667518
"947",2,30,50,42,1,NA,NA,36,11,45,51,199,199,2,3,2,6,2,-2,2,0,94,1,6,1,0.5853891
"948",2,30,50,42,1,NA,NA,36,11,45,51,10199,10199,2,2,3,6,-2,2,-2,1,95,174,5,0,0.4667507
"949",2,30,50,42,1,NA,NA,36,11,45,51,1855,1855,1,2,3,6,-2,2,-2,1,96,30,5,1,0.5333668
"950",2,30,50,42,1,NA,NA,36,11,45,51,12999,12999,2,2,3,6,-2,2,-2,1,97,230,5,1,0.4666861
"951",2,30,50,42,1,NA,NA,36,11,45,51,9699,9699,2,3,1,3,2,-2,2,0,98,451,5,1,0.5667753
"952",2,30,50,42,1,NA,NA,36,11,45,51,13255,13255,1,2,1,2,-2,2,-2,1,99,806,5,1,0.4167156
"953",2,30,50,42,1,NA,NA,36,11,45,51,12199,12199,2,3,2,6,-2,2,2,1,100,212,6,0,0.450013
"954",2,30,50,42,1,NA,NA,36,11,45,51,12299,12299,2,3,1,3,-2,2,2,1,101,498,6,1,0.4501265
"955",2,30,50,42,1,NA,NA,36,11,45,51,2955,2955,1,2,3,6,2,-2,-2,0,102,55,5,1,0.6182223
"956",2,30,50,42,1,NA,NA,36,11,45,51,3299,3299,2,1,2,2,2,-2,2,0,103,633,6,1,0.7000454
"957",2,30,50,42,1,NA,NA,36,11,45,51,14699,14699,2,3,2,6,2,-2,2,0,104,265,5,1,0.6501487
"958",2,30,50,42,1,NA,NA,36,11,45,51,15399,15399,2,2,3,6,-2,2,-2,1,105,270,6,1,0.8668136
"959",2,30,50,42,1,NA,NA,36,11,45,51,7599,7599,2,1,3,3,2,-2,-2,0,106,421,5,1,0.6833009
"960",2,30,50,42,1,NA,NA,36,11,45,51,15899,15899,2,2,3,6,2,-2,-2,0,107,275,6,1,0.5333213
"961",2,30,50,42,1,NA,NA,36,11,45,51,4899,4899,2,3,2,6,-2,2,2,1,108,92,6,1,0.5833826
"962",2,30,50,42,1,NA,NA,36,11,45,51,12155,12155,1,3,1,3,-2,2,2,1,109,494,5,1,0.6000544
"963",2,30,50,42,1,NA,NA,36,11,45,51,7199,7199,2,2,1,2,-2,2,-2,1,110,698,6,1,0.6001348
"964",2,30,50,42,1,NA,NA,36,11,45,51,14199,14199,2,2,1,2,-2,2,-2,1,111,822,5,1,0.7167803
"965",2,30,50,42,1,NA,NA,36,11,45,51,12499,12499,2,3,1,3,-2,2,2,1,112,502,5,1,0.6500261
"966",2,30,50,42,1,NA,NA,36,11,45,51,13499,13499,2,3,1,3,-2,2,2,1,113,526,6,1,0.5667992
"967",2,30,50,42,1,NA,NA,36,11,45,51,8399,8399,2,3,2,6,2,-2,2,0,114,149,5,1,0.6843467
"968",2,30,50,42,1,NA,NA,36,11,45,51,1399,1399,2,3,2,6,2,-2,2,0,115,25,6,1,0.9668023
"969",2,30,50,42,1,NA,NA,36,11,45,51,2099,2099,2,2,1,2,2,-2,-2,0,116,603,6,1,1.2334852
"970",2,30,50,42,1,NA,NA,36,11,45,51,3299,3299,2,3,2,6,2,-2,2,0,117,65,6,1,0.8000328
"971",2,30,50,42,1,NA,NA,36,11,45,51,8799,8799,2,3,1,3,-2,2,2,1,118,438,6,1,0.4667216
"972",2,30,50,42,1,NA,NA,36,11,45,51,3199,3199,2,2,1,2,2,-2,-2,0,119,631,5,1,0.4501373
"973",2,30,50,42,1,NA,NA,36,11,45,51,14399,14399,2,1,2,2,2,-2,2,0,120,829,5,1,0.6501402
"974",2,30,50,42,1,NA,NA,36,11,45,51,9699,9699,2,2,1,2,-2,2,-2,1,121,734,5,1,0.5166839
"975",2,30,50,42,1,NA,NA,36,11,45,51,12199,12199,2,1,3,3,-2,2,-2,1,122,496,5,1,0.5000157
"976",2,30,50,42,1,NA,NA,36,11,45,51,9899,9899,2,1,3,3,-2,2,-2,1,123,452,6,1,0.7000064
"977",2,30,50,42,1,NA,NA,36,11,45,51,499,499,2,1,3,3,2,-2,-2,0,124,293,5,1,0.6347325
"978",2,30,50,42,1,NA,NA,36,11,45,51,9199,9199,2,1,2,2,2,-2,2,0,125,725,5,1,0.4999656
"979",2,30,50,42,1,NA,NA,36,11,45,51,599,599,2,2,1,2,2,-2,-2,0,126,579,6,1,0.6000574
"980",2,30,50,42,1,NA,NA,36,11,45,51,13299,13299,2,1,3,3,2,-2,-2,0,127,525,5,1,0.5667624
"981",2,30,50,42,1,NA,NA,36,11,45,51,9399,9399,2,1,3,3,-2,2,-2,1,128,444,6,1,0.6166974
"982",2,30,50,42,1,NA,NA,36,11,45,51,10199,10199,2,2,3,6,2,-2,-2,0,129,175,6,1,0.8832927
"983",2,30,50,42,1,NA,NA,36,11,45,51,12855,12855,1,1,3,3,-2,2,-2,1,130,512,6,1,0.5168092
"984",2,30,50,42,1,NA,NA,36,11,45,51,6999,6999,2,2,1,2,-2,2,-2,1,131,694,6,1,0.616641
"985",2,30,50,42,1,NA,NA,36,11,45,51,12555,12555,1,2,1,2,-2,2,2,1,132,788,5,1,0.5167881
"986",2,30,50,42,1,NA,NA,36,11,45,51,9499,9499,2,2,1,2,2,-2,-2,0,133,731,5,1,0.7666113
"987",2,30,50,42,1,NA,NA,36,11,45,51,9899,9899,2,3,2,6,2,-2,2,0,134,169,6,1,0.8167611
"988",2,30,50,42,1,NA,NA,36,11,45,51,7399,7399,2,2,3,6,-2,2,-2,1,135,134,6,1,0.8333213
"989",2,30,50,42,1,NA,NA,36,11,45,51,13855,13855,1,3,1,3,2,-2,2,0,136,531,6,1,0.566779
"990",2,30,50,42,1,NA,NA,36,11,45,51,2099,2099,2,3,1,3,2,-2,2,0,137,319,6,1,0.6501411
"991",2,30,50,42,1,NA,NA,36,11,45,51,1399,1399,2,1,2,2,-2,2,2,1,138,592,6,1,0.4000691
"992",2,30,50,42,1,NA,NA,36,11,45,51,10455,10455,1,2,3,6,-2,2,-2,1,139,178,5,1,0.8333205
"993",2,30,50,42,1,NA,NA,36,11,45,51,2155,2155,1,3,2,6,2,-2,2,0,140,37,6,1,0.5500425
"994",2,30,50,42,1,NA,NA,36,11,45,51,11399,11399,2,3,1,3,2,-2,2,0,141,483,6,1,0.5013367
"995",2,30,50,42,1,NA,NA,36,11,45,51,1255,1255,1,2,1,2,2,-2,-2,0,142,591,6,1,0.5001362
"996",2,30,50,42,1,NA,NA,36,11,45,51,899,899,2,2,3,6,2,-2,-2,0,143,15,6,1,0.7667656
"997",2,30,50,42,1,NA,NA,36,11,45,51,2099,2099,2,2,3,6,2,-2,-2,0,144,35,6,1,0.3167857
"998",2,30,50,42,1,NA,NA,36,11,45,51,199,199,2,1,2,2,2,-2,2,0,145,569,6,1,0.4834176
"999",2,30,50,42,1,NA,NA,36,11,45,51,6099,6099,2,2,1,2,2,-2,-2,0,146,675,5,1,0.5666502
"1000",2,30,50,42,1,NA,NA,36,11,45,51,15399,15399,2,3,1,3,-2,2,2,1,147,554,6,1,1.0333433
"1001",2,30,50,42,1,NA,NA,36,11,45,51,7999,7999,2,3,1,3,-2,2,2,1,148,426,6,1,0.5000489
"1002",2,30,50,42,1,NA,NA,36,11,45,51,3355,3355,1,2,1,2,-2,2,-2,1,149,634,5,1,0.5167793
"1003",2,30,50,42,1,NA,NA,36,11,45,51,3699,3699,2,1,3,3,-2,2,-2,1,150,356,5,1,0.5334338
"1004",2,30,50,42,1,NA,NA,36,11,45,51,13499,13499,2,2,3,6,2,-2,-2,0,151,243,6,1,0.5001844
"1005",2,30,50,42,1,NA,NA,36,11,45,51,3355,3355,1,2,1,2,2,-2,-2,0,152,635,5,1,0.5344038
"1006",2,30,50,42,1,NA,NA,36,11,45,51,17255,17255,1,3,2,6,-2,2,2,1,153,280,6,1,0.4667504
"1007",2,30,50,42,1,NA,NA,36,11,45,51,4199,4199,2,2,3,6,2,-2,-2,0,154,83,5,1,0.5500289
"1008",2,30,50,42,1,NA,NA,36,11,45,51,10899,10899,2,2,3,6,-2,2,-2,1,155,190,6,1,0.6001252
"1009",2,30,50,42,1,NA,NA,36,11,45,51,2099,2099,2,3,1,3,-2,2,2,1,156,318,6,1,0.466742
"1010",2,30,50,42,1,NA,NA,36,11,45,51,14699,14699,2,3,2,6,-2,2,2,1,157,264,5,1,0.6666303
"1011",2,30,50,42,1,NA,NA,36,11,45,51,15299,15299,2,1,3,3,2,-2,-2,0,158,553,5,1,0.4333581
"1012",2,30,50,42,1,NA,NA,36,11,45,51,6355,6355,1,3,2,6,-2,2,2,1,159,112,5,1,0.5501319
"1013",2,30,50,42,1,NA,NA,36,11,45,51,14499,14499,2,3,1,3,2,-2,2,0,160,547,6,1,0.5834043
"1014",2,30,50,42,1,NA,NA,36,11,45,51,12699,12699,2,1,2,2,-2,2,2,1,161,792,5,1,1.1167803
"1015",2,30,50,42,1,NA,NA,36,11,45,51,4299,4299,2,3,2,6,2,-2,2,0,162,85,6,1,0.6999521
"1016",2,30,50,42,1,NA,NA,36,11,45,51,199,199,2,3,2,6,-2,2,2,1,163,0,6,1,0.8667536
"1017",2,30,50,42,1,NA,NA,36,11,45,51,3155,3155,1,1,3,3,-2,2,-2,1,164,344,5,0,0.6833774
"1018",2,30,50,42,1,NA,NA,36,11,45,51,399,399,2,3,2,6,2,-2,2,0,165,5,6,1,0.5332879
"1019",2,30,50,42,1,NA,NA,36,11,45,51,12599,12599,2,2,1,2,2,-2,-2,0,166,791,6,1,0.516607
"1020",2,30,50,42,1,NA,NA,36,11,45,51,7999,7999,2,2,1,2,-2,2,-2,1,167,710,6,1,0.4833855
"1021",2,30,50,42,1,NA,NA,36,11,45,51,5799,5799,2,2,3,6,-2,2,-2,1,168,102,5,1,0.5500487
"1022",2,30,50,42,1,NA,NA,36,11,45,51,12555,12555,1,2,1,2,2,-2,2,0,169,789,5,1,0.6167093
"1023",2,30,50,42,1,NA,NA,36,11,45,51,1699,1699,2,3,1,3,2,-2,2,0,170,311,5,1,0.5672184
"1024",2,30,50,42,1,NA,NA,36,11,45,51,4155,4155,1,1,3,3,-2,2,-2,1,171,364,6,1,0.6667797
"1025",2,30,50,42,1,NA,NA,36,11,45,51,1699,1699,2,2,3,6,-2,2,-2,1,172,26,5,1,0.6333741
"1026",2,30,50,42,1,NA,NA,36,11,45,51,15099,15099,2,2,1,2,2,-2,-2,0,173,835,6,1,0.8166881
"1027",2,30,50,42,1,NA,NA,36,11,45,51,10199,10199,2,2,1,2,2,-2,-2,0,174,743,6,1,0.5166458
"1028",2,30,50,42,1,NA,NA,36,11,45,51,5299,5299,2,3,2,6,-2,2,2,1,175,96,6,1,0.9501221
"1029",2,30,50,42,1,NA,NA,36,11,45,51,8799,8799,2,3,1,3,2,-2,2,0,176,439,6,1,0.5667853
"1030",2,30,50,42,1,NA,NA,36,11,45,51,6599,6599,2,1,2,2,-2,2,2,1,177,684,5,1,0.6334181
"1031",2,30,50,42,1,NA,NA,36,11,45,51,599,599,2,3,1,3,2,-2,2,0,178,295,6,1,0.6000377
"1032",2,30,50,42,1,NA,NA,36,11,45,51,7099,7099,2,1,2,2,2,-2,2,0,179,697,5,1,0.7183163
"1033",2,30,50,42,1,NA,NA,36,11,45,51,3399,3399,2,3,2,6,2,-2,2,0,180,69,5,1,0.5666412
"1034",2,30,50,42,1,NA,NA,36,11,45,51,2999,2999,2,1,3,3,-2,2,-2,1,181,340,5,1,0.6667634
"1035",2,30,50,42,1,NA,NA,36,11,45,51,8699,8699,2,1,2,2,-2,2,2,1,182,720,5,1,0.8833956
"1036",2,30,50,42,1,NA,NA,36,11,45,51,6855,6855,1,1,2,2,2,-2,2,0,183,689,6,1,1.0333209
"1037",2,30,50,42,1,NA,NA,36,11,45,51,8499,8499,2,2,1,2,2,-2,-2,0,184,719,6,1,0.9167224
"1038",2,30,50,42,1,NA,NA,36,11,45,51,13855,13855,1,2,3,6,-2,2,-2,1,185,246,6,1,1.2000131
"1039",2,30,50,42,1,NA,NA,36,11,45,51,14299,14299,2,1,2,2,-2,2,2,1,186,824,6,1,0.6667644
"1040",2,30,50,42,1,NA,NA,36,11,45,51,15799,15799,2,1,3,3,-2,2,-2,1,187,556,5,1,0.5000526
"1041",2,30,50,42,1,NA,NA,36,11,45,51,2699,2699,2,3,2,6,-2,2,2,1,188,48,6,1,0.9501233
"1042",2,30,50,42,1,NA,NA,36,11,45,51,6899,6899,2,2,3,6,-2,2,-2,1,189,122,5,1,0.5500215
"1043",2,30,50,42,1,NA,NA,36,11,45,51,299,299,2,2,3,6,2,-2,-2,0,190,3,5,1,0.5334497
"1044",2,30,50,42,1,NA,NA,36,11,45,51,12299,12299,2,2,1,2,-2,2,-2,1,191,782,6,1,0.6000113
"1045",2,30,50,42,1,NA,NA,36,11,45,51,999,999,2,3,2,6,-2,2,2,1,192,16,5,1,0.6167134
"1046",2,30,50,42,1,NA,NA,36,11,45,51,12155,12155,1,2,1,2,2,-2,-2,0,193,779,5,1,0.8000449
"1047",2,30,50,42,1,NA,NA,36,11,45,51,10355,10355,1,1,2,2,-2,2,2,1,194,744,6,1,0.6501192
"1048",2,30,50,42,1,NA,NA,36,11,45,51,13255,13255,1,3,1,3,2,-2,2,0,195,523,5,1,0.4834413
"1049",2,30,50,42,1,NA,NA,36,11,45,51,1099,1099,2,2,1,2,2,-2,-2,0,196,587,6,1,0.5500274
"1050",2,30,50,42,1,NA,NA,36,11,45,51,2655,2655,1,2,1,2,-2,2,-2,1,197,614,6,1,0.4839484
"1051",2,30,50,42,1,NA,NA,36,11,45,51,13199,13199,2,1,2,2,2,-2,2,0,198,805,6,1,0.5833808
"1052",2,30,50,42,1,NA,NA,36,11,45,51,13899,13899,2,3,2,6,-2,2,2,1,199,248,6,1,0.8167926
"1053",2,30,50,42,1,NA,NA,36,11,45,51,12599,12599,2,3,1,3,2,-2,2,0,200,507,6,1,0.8834564
"1054",2,30,50,42,1,NA,NA,36,11,45,51,5599,5599,2,3,1,3,2,-2,2,0,201,383,5,1,0.5667781
"1055",2,30,50,42,1,NA,NA,36,11,45,51,1255,1255,1,2,3,6,2,-2,-2,0,202,23,6,1,0.5507747
"1056",2,30,50,42,1,NA,NA,36,11,45,51,10355,10355,1,3,2,6,-2,2,2,1,203,176,6,1,0.6167896
"1057",2,30,50,42,1,NA,NA,36,11,45,51,7599,7599,2,1,3,3,-2,2,-2,1,204,420,5,1,0.6166889
"1058",2,30,50,42,1,NA,NA,36,11,45,51,14499,14499,2,2,3,6,2,-2,-2,0,205,263,6,1,0.7500127
"1059",2,30,50,42,1,NA,NA,36,11,45,51,6855,6855,1,1,2,2,-2,2,2,1,206,688,6,1,0.5833311
"1060",2,30,50,42,1,NA,NA,36,11,45,51,9399,9399,2,3,2,6,2,-2,2,0,207,161,6,1,0.7833574
"1061",2,30,50,42,1,NA,NA,36,11,45,51,11755,11755,1,1,2,2,-2,2,2,1,208,772,6,1,0.4168167
"1062",2,30,50,42,1,NA,NA,36,11,45,51,7399,7399,2,2,3,6,2,-2,-2,0,209,135,6,1,1.0668774
"1063",2,30,50,42,1,NA,NA,36,11,45,51,5599,5599,2,2,1,2,2,-2,-2,0,210,667,5,1,0.6667477
"1064",2,30,50,42,1,NA,NA,36,11,45,51,10599,10599,2,2,1,2,2,-2,-2,0,211,751,5,1,0.633404
"1065",2,30,50,42,1,NA,NA,36,11,45,51,8699,8699,2,1,3,3,2,-2,-2,0,212,437,5,1,0.5000977
"1066",2,30,50,42,1,NA,NA,36,11,45,51,7699,7699,2,2,3,6,-2,2,-2,1,213,138,6,1,0.7847772
"1067",2,30,50,42,1,NA,NA,36,11,45,51,5599,5599,2,2,3,6,-2,2,-2,1,214,98,5,1,0.6674921
"1068",2,30,50,42,1,NA,NA,36,11,45,51,4899,4899,2,1,3,3,-2,2,-2,1,215,376,6,1,1.116629
"1069",2,30,50,42,1,NA,NA,36,11,45,51,14055,14055,1,3,1,3,2,-2,2,0,216,535,5,1,0.4833454
"1070",2,30,50,42,1,NA,NA,36,11,45,51,7599,7599,2,3,2,6,-2,2,2,1,217,136,5,1,0.4666456
"1071",2,30,50,42,1,NA,NA,36,11,45,51,14299,14299,2,1,3,3,2,-2,-2,0,218,541,6,1,0.4667577
"1072",2,30,50,42,1,NA,NA,36,11,45,51,10555,10555,1,1,2,2,2,-2,2,0,219,749,6,1,0.566777
"1073",2,30,50,42,1,NA,NA,36,11,45,51,13155,13155,1,3,1,3,-2,2,2,1,220,518,6,1,0.5166709
"1074",2,30,50,42,1,NA,NA,36,11,45,51,11755,11755,1,1,3,3,2,-2,-2,0,221,489,6,1,0.5333443
"1075",2,30,50,42,1,NA,NA,36,11,45,51,7699,7699,2,2,1,2,2,-2,-2,0,222,707,6,1,0.4000317
"1076",2,30,50,42,1,NA,NA,36,11,45,51,3699,3699,2,1,2,2,-2,2,2,1,223,640,5,1,0.5333964
"1077",2,30,50,42,1,NA,NA,36,11,45,51,15799,15799,2,1,2,2,2,-2,2,0,224,841,5,1,0.4166445
"1078",2,30,50,42,1,NA,NA,36,11,45,51,10855,10855,1,1,2,2,-2,2,2,1,225,756,5,1,0.4333872
"1079",2,30,50,42,1,NA,NA,36,11,45,51,3355,3355,1,3,1,3,-2,2,2,1,226,350,5,1,0.3843097
"1080",2,30,50,42,1,NA,NA,36,11,45,51,12999,12999,2,3,1,3,-2,2,2,1,227,514,5,1,0.4166542
"1081",2,30,50,42,1,NA,NA,36,11,45,51,13055,13055,1,3,2,6,2,-2,2,0,228,233,5,1,0.6334664
"1082",2,30,50,42,1,NA,NA,36,11,45,51,5799,5799,2,2,1,2,-2,2,-2,1,229,670,5,1,0.4500657
"1083",2,30,50,42,1,NA,NA,36,11,45,51,5799,5799,2,2,3,6,2,-2,-2,0,230,103,5,1,0.5167079
"1084",2,30,50,42,1,NA,NA,36,11,45,51,3099,3099,2,2,3,6,-2,2,-2,1,231,58,6,1,1.0166911
"1085",2,30,50,42,1,NA,NA,36,11,45,51,3599,3599,2,2,3,6,2,-2,-2,0,232,71,6,1,0.5334117
"1086",2,30,50,42,1,NA,NA,36,11,45,51,399,399,2,3,2,6,-2,2,2,1,233,4,6,1,0.6166877
"1087",2,30,50,42,1,NA,NA,36,11,45,51,14499,14499,2,2,3,6,-2,2,-2,1,234,262,6,1,0.5833619
"1088",2,30,50,42,1,NA,NA,36,11,45,51,15299,15299,2,1,2,2,-2,2,2,1,235,836,5,1,0.5834354
"1089",2,30,50,42,1,NA,NA,36,11,45,51,5899,5899,2,1,3,3,-2,2,-2,1,236,388,6,1,0.4500235
"1090",2,30,50,42,1,NA,NA,36,11,45,51,5699,5699,2,3,2,6,2,-2,2,0,237,101,6,1,0.5333648
"1091",2,30,50,42,1,NA,NA,36,11,45,51,16199,16199,2,1,3,3,2,-2,-2,0,238,561,5,1,0.4500256
"1092",2,30,50,42,1,NA,NA,36,11,45,51,5899,5899,2,1,3,3,2,-2,-2,0,239,389,6,1,0.7833339
"1093",2,30,50,42,1,NA,NA,36,11,45,51,16199,16199,2,3,2,6,2,-2,2,0,240,277,5,1,0.5000075
"1094",2,30,50,42,1,NA,NA,36,11,45,51,2699,2699,2,1,3,3,2,-2,-2,0,241,333,6,1,0.5333911
"1095",2,30,50,42,1,NA,NA,36,11,45,51,4999,4999,2,3,1,3,-2,2,2,1,242,378,5,1,0.5501357
"1096",2,30,50,42,1,NA,NA,36,11,45,51,14055,14055,1,2,3,6,2,-2,-2,0,243,251,6,0,0.3667086
"1097",2,30,50,42,1,NA,NA,36,11,45,51,3699,3699,2,1,3,3,2,-2,-2,0,244,357,5,1,0.4500469
"1098",2,30,50,42,1,NA,NA,36,11,45,51,6855,6855,1,3,2,6,2,-2,2,0,245,121,6,1,0.8166726
"1099",2,30,50,42,1,NA,NA,36,11,45,51,7399,7399,2,3,1,3,2,-2,2,0,246,419,6,1,0.5667132
"1100",2,30,50,42,1,NA,NA,36,11,45,51,10855,10855,1,1,2,2,2,-2,2,0,247,757,5,1,0.5667898
"1101",2,30,50,42,1,NA,NA,36,11,45,51,13299,13299,2,3,2,6,-2,2,2,1,248,240,5,1,0.4668251
"1102",2,30,50,42,1,NA,NA,36,11,45,51,14155,14155,1,1,2,2,2,-2,2,0,249,821,6,1,0.4679254
"1103",2,30,50,42,1,NA,NA,36,11,45,51,12155,12155,1,2,1,2,-2,2,-2,1,250,778,5,1,0.4833805
"1104",2,30,50,42,1,NA,NA,36,11,45,51,4199,4199,2,2,3,6,-2,2,-2,1,251,82,5,1,0.4833604
"1105",2,30,50,42,1,NA,NA,36,11,45,51,6355,6355,1,1,2,2,-2,2,2,1,252,680,6,0,0.6667932
"1106",2,30,50,42,1,NA,NA,36,11,45,51,13155,13155,1,2,3,6,-2,2,-2,1,253,234,6,1,0.8667937
"1107",2,30,50,42,1,NA,NA,36,11,45,51,3299,3299,2,1,3,3,-2,2,-2,1,254,348,6,1,1.1685305
"1108",2,30,50,42,1,NA,NA,36,11,45,51,2599,2599,2,3,2,6,-2,2,2,1,255,44,5,1,0.5501148
"1109",2,30,50,42,1,NA,NA,36,11,45,51,8499,8499,2,3,1,3,-2,2,2,1,256,434,6,1,0.6500098
"1110",2,30,50,42,1,NA,NA,36,11,45,51,499,499,2,1,2,2,-2,2,2,1,257,576,5,1,0.5500761
"1111",2,30,50,42,1,NA,NA,36,11,45,51,6299,6299,2,3,1,3,-2,2,2,1,258,394,5,1,0.5501259
"1112",2,30,50,42,1,NA,NA,36,11,45,51,14299,14299,2,3,2,6,2,-2,2,0,259,257,5,0,0.5334619
"1113",2,30,50,42,1,NA,NA,36,11,45,51,7799,7799,2,1,2,2,2,-2,2,0,260,709,5,1,0.5501228
"1114",2,30,50,42,1,NA,NA,36,11,45,51,399,399,2,1,2,2,-2,2,2,1,261,572,6,1,0.5684697
"1115",2,30,50,42,1,NA,NA,36,11,45,51,11399,11399,2,2,3,6,-2,2,-2,1,262,198,6,1,0.8166812
