"","ID","Snellen_Denominator","Grip_Strength","Chest_Strength","Handness","Height","Weight","DomIPIP","Tdom","State","Trait","cue_image_1","Face_Set_Code","Face_Type_Code","letter","corAns","orientation","experimental_trials.thisN","experimental_trials.thisIndex","responsebutton.keys","responsebutton.corr","responsebutton.rt"
"1","1",30,120,105,1,187.96,111.13,47,17,28,36,"13055","1","1","1",6,"0","0",349,6,"1",1.0167879
"2","1",30,120,105,1,187.96,111.13,47,17,28,36,"12555","1","3","1",5,"180","1",756,5,"1",0.5667344
"3","1",30,120,105,1,187.96,111.13,47,17,28,36,"14355","1","1","1",5,"180","2",388,5,"1",0.433384
"4","1",30,120,105,1,187.96,111.13,47,17,28,36,"6399","2","2","2",6,"0","3",599,6,"1",0.3500556
"5","1",30,120,105,1,187.96,111.13,47,17,28,36,"7599","2","1","2",6,"0","4",631,6,"1",0.3833918
"6","1",30,120,105,1,187.96,111.13,47,17,28,36,"399","2","3","1",5,"180","5",432,5,"1",0.3334726
"7","1",30,120,105,1,187.96,111.13,47,17,28,36,"6199","2","3","2",5,"180","6",162,5,"1",0.6166315
"8","1",30,120,105,1,187.96,111.13,47,17,28,36,"4399","2","1","1",5,"180","7",556,5,"1",0.3501175
"9","1",30,120,105,1,187.96,111.13,47,17,28,36,"4299","2","3","1",5,"180","8",552,5,"1",0.3516148
"10","1",30,120,105,1,187.96,111.13,47,17,28,36,"17355","1","1","2",5,"180","9",850,5,"1",0.3834756
"11","1",30,120,105,1,187.96,111.13,47,17,28,36,"13199","2","2","1",5,"180","11",356,5,"1",0.4167012
"12","1",30,120,105,1,187.96,111.13,47,17,28,36,"10355","1","2","1",5,"180","12",692,5,"1",0.3667059
"13","1",30,120,105,1,187.96,111.13,47,17,28,36,"14499","2","3","1",6,"0","13",393,6,"1",0.3666859
"14","1",30,120,105,1,187.96,111.13,47,17,28,36,"13055","1","2","2",5,"180","14",350,5,"1",0.3501403
"15","1",30,120,105,1,187.96,111.13,47,17,28,36,"2955","1","1","2",5,"180","15",82,5,"1",0.3000509
"16","1",30,120,105,1,187.96,111.13,47,17,28,36,"2999","2","1","1",6,"0","17",85,6,"1",0.4167423
"17","1",30,120,105,1,187.96,111.13,47,17,28,36,"4099","2","1","1",5,"180","18",544,5,"1",0.3166402
"18","1",30,120,105,1,187.96,111.13,47,17,28,36,"3355","1","1","1",5,"180","19",100,5,"1",0.3333846
"19","1",30,120,105,1,187.96,111.13,47,17,28,36,"399","2","1","2",6,"0","20",7,6,"1",0.3001285
"20","1",30,120,105,1,187.96,111.13,47,17,28,36,"3199","2","3","1",6,"0","22",93,6,"1",0.6666491
"21","1",30,120,105,1,187.96,111.13,47,17,28,36,"7799","2","1","1",6,"0","23",637,6,"1",0.4667548
"22","1",30,120,105,1,187.96,111.13,47,17,28,36,"12355","1","3","1",5,"180","24",324,5,"1",0.3500394
"23","1",30,120,105,1,187.96,111.13,47,17,28,36,"3355","1","3","2",6,"0","25",99,6,"1",0.2834636
"24","1",30,120,105,1,187.96,111.13,47,17,28,36,"9699","2","3","1",6,"0","26",249,6,"1",0.4334622
"25","1",30,120,105,1,187.96,111.13,47,17,28,36,"3155","1","2","2",5,"180","27",518,5,"1",0.5001509
"26","1",30,120,105,1,187.96,111.13,47,17,28,36,"5899","2","1","1",6,"0","28",157,6,"1",0.4333539
"27","1",30,120,105,1,187.96,111.13,47,17,28,36,"9199","2","2","1",5,"180","29",236,5,"1",0.3833869
"28","1",30,120,105,1,187.96,111.13,47,17,28,36,"13255","1","2","2",6,"0","30",359,6,"1",0.3001249
"29","1",30,120,105,1,187.96,111.13,47,17,28,36,"1699","2","2","2",6,"0","31",467,6,"1",0.3334304
"30","1",30,120,105,1,187.96,111.13,47,17,28,36,"499","2","3","1",5,"180","32",12,5,"1",0.3334223
"31","1",30,120,105,1,187.96,111.13,47,17,28,36,"13199","2","1","2",6,"0","33",355,6,"1",0.3001475
"32","1",30,120,105,1,187.96,111.13,47,17,28,36,"599","2","1","2",5,"180","34",442,5,"1",0.4166599
"33","1",30,120,105,1,187.96,111.13,47,17,28,36,"12355","1","1","1",6,"0","35",325,6,"1",0.2834225
"34","1",30,120,105,1,187.96,111.13,47,17,28,36,"6999","2","2","2",6,"0","36",191,6,"1",0.3666355
"35","1",30,120,105,1,187.96,111.13,47,17,28,36,"455","1","3","1",6,"0","37",9,6,"1",0.4334385
"36","1",30,120,105,1,187.96,111.13,47,17,28,36,"13699","2","1","2",6,"0","38",367,6,"1",0.3667839
"37","1",30,120,105,1,187.96,111.13,47,17,28,36,"15099","2","2","1",6,"0","39",401,6,"1",0.3849566
"38","1",30,120,105,1,187.96,111.13,47,17,28,36,"10699","2","2","1",5,"180","40",704,5,"1",0.3499397
"39","1",30,120,105,1,187.96,111.13,47,17,28,36,"10355","1","3","2",5,"180","41",690,5,"1",0.3833853
"40","1",30,120,105,1,187.96,111.13,47,17,28,36,"15399","2","2","2",6,"0","42",407,6,"1",0.2837203
"41","1",30,120,105,1,187.96,111.13,47,17,28,36,"2655","1","3","2",6,"0","43",495,6,"1",0.2834727
"42","1",30,120,105,1,187.96,111.13,47,17,28,36,"6699","2","3","2",6,"0","44",603,6,"1",0.2833882
"43","1",30,120,105,1,187.96,111.13,47,17,28,36,"8199","2","3","2",6,"0","45",219,6,"1",0.283468
"44","1",30,120,105,1,187.96,111.13,47,17,28,36,"6299","2","1","2",5,"180","46",166,5,"1",0.5668025
"45","1",30,120,105,1,187.96,111.13,47,17,28,36,"10155","1","1","2",6,"0","47",259,6,"1",0.3333767
"46","1",30,120,105,1,187.96,111.13,47,17,28,36,"14699","2","3","1",5,"180","48",396,5,"1",0.4667766
"47","1",30,120,105,1,187.96,111.13,47,17,28,36,"4399","2","3","2",6,"0","49",555,6,"1",0.4000976
"48","1",30,120,105,1,187.96,111.13,47,17,28,36,"12855","1","2","1",5,"180","50",344,5,"1",0.3004031
"49","1",30,120,105,1,187.96,111.13,47,17,28,36,"4899","2","3","1",5,"180","51",564,5,"1",0.3333955
"50","1",30,120,105,1,187.96,111.13,47,17,28,36,"3699","2","1","2",6,"0","52",535,6,"1",0.3166352
"51","1",30,120,105,1,187.96,111.13,47,17,28,36,"7299","2","2","2",5,"180","53",626,5,"1",0.4167833
"52","1",30,120,105,1,187.96,111.13,47,17,28,36,"7799","2","3","1",5,"180","54",636,5,"1",0.4000519
"53","1",30,120,105,1,187.96,111.13,47,17,28,36,"2699","2","1","2",6,"0","55",499,6,"1",0.3513573
"54","1",30,120,105,1,187.96,111.13,47,17,28,36,"10555","1","2","1",5,"180","56",272,5,"1",0.3666448
"55","1",30,120,105,1,187.96,111.13,47,17,28,36,"4155","1","1","1",6,"0","57",121,6,"1",0.3833276
"56","1",30,120,105,1,187.96,111.13,47,17,28,36,"7099","2","1","2",6,"0","58",619,6,"1",0.4335649
"57","1",30,120,105,1,187.96,111.13,47,17,28,36,"13499","2","1","2",5,"180","60",790,5,"1",0.5501484
"58","1",30,120,105,1,187.96,111.13,47,17,28,36,"3799","2","1","1",5,"180","61",112,5,"1",0.4667177
"59","1",30,120,105,1,187.96,111.13,47,17,28,36,"11699","2","3","1",6,"0","62",729,6,"1",0.4167123
"60","1",30,120,105,1,187.96,111.13,47,17,28,36,"13699","2","2","2",5,"180","63",794,5,"1",0.4000256
"61","1",30,120,105,1,187.96,111.13,47,17,28,36,"10455","1","3","1",6,"0","64",693,6,"1",0.4843984
"62","1",30,120,105,1,187.96,111.13,47,17,28,36,"6199","2","2","1",5,"180","65",164,5,"1",0.4166924
"63","1",30,120,105,1,187.96,111.13,47,17,28,36,"12799","2","2","2",6,"0","66",767,6,"1",0.3833792
"64","1",30,120,105,1,187.96,111.13,47,17,28,36,"6399","2","1","1",5,"180","68",172,5,"1",0.4166934
"65","1",30,120,105,1,187.96,111.13,47,17,28,36,"2299","2","3","1",5,"180","69",60,5,"1",0.5668035
"66","1",30,120,105,1,187.96,111.13,47,17,28,36,"10355","1","1","1",6,"0","70",265,6,"1",0.3500799
"67","1",30,120,105,1,187.96,111.13,47,17,28,36,"11699","2","2","2",6,"0","71",731,6,"1",0.3167124
"68","1",30,120,105,1,187.96,111.13,47,17,28,36,"13699","2","2","1",5,"180","73",368,5,"1",0.4833781
"69","1",30,120,105,1,187.96,111.13,47,17,28,36,"13255","1","3","2",6,"0","74",783,6,"1",0.3334714
"70","1",30,120,105,1,187.96,111.13,47,17,28,36,"16199","2","2","1",5,"180","75",416,5,"1",0.4333915
"71","1",30,120,105,1,187.96,111.13,47,17,28,36,"14699","2","3","2",5,"180","76",822,5,"1",0.5166832
"72","1",30,120,105,1,187.96,111.13,47,17,28,36,"6699","2","1","1",5,"180","77",604,5,"1",0.4001265
"73","1",30,120,105,1,187.96,111.13,47,17,28,36,"14055","1","1","1",5,"180","78",376,5,"1",0.3667939
"74","1",30,120,105,1,187.96,111.13,47,17,28,36,"6355","1","2","1",5,"180","79",596,5,"1",0.3508109
"75","1",30,120,105,1,187.96,111.13,47,17,28,36,"13855","1","1","1",5,"180","80",796,5,"1",0.3669882
"76","1",30,120,105,1,187.96,111.13,47,17,28,36,"3399","2","1","1",6,"0","81",529,6,"1",0.4001356
"77","1",30,120,105,1,187.96,111.13,47,17,28,36,"15899","2","3","1",6,"0","82",837,6,"1",0.3001275
"78","1",30,120,105,1,187.96,111.13,47,17,28,36,"4155","1","3","2",5,"180","83",546,5,"1",0.3167055
"79","1",30,120,105,1,187.96,111.13,47,17,28,36,"11099","2","3","2",6,"0","84",291,6,"1",0.3332963
"80","1",30,120,105,1,187.96,111.13,47,17,28,36,"15099","2","3","2",6,"0","85",399,6,"1",0.2666968
"81","1",30,120,105,1,187.96,111.13,47,17,28,36,"5299","2","1","2",6,"0","87",571,6,"1",0.3001305
"82","1",30,120,105,1,187.96,111.13,47,17,28,36,"11755","1","1","2",6,"0","88",307,6,"1",0.3834444
"83","1",30,120,105,1,187.96,111.13,47,17,28,36,"17355","1","3","2",6,"0","89",423,6,"1",0.2833987
"84","1",30,120,105,1,187.96,111.13,47,17,28,36,"2699","2","2","1",5,"180","90",500,5,"1",0.3334243
"85","1",30,120,105,1,187.96,111.13,47,17,28,36,"12299","2","3","1",6,"0","92",321,6,"1",0.5688229
"86","1",30,120,105,1,187.96,111.13,47,17,28,36,"9699","2","3","2",6,"0","93",675,6,"1",0.4000174
"87","1",30,120,105,1,187.96,111.13,47,17,28,36,"7999","2","2","2",6,"0","94",215,6,"1",0.3512627
"88","1",30,120,105,1,187.96,111.13,47,17,28,36,"10099","2","1","2",5,"180","95",682,5,"1",0.4000277
"89","1",30,120,105,1,187.96,111.13,47,17,28,36,"11399","2","1","2",5,"180","96",298,5,"1",0.3333707
"90","1",30,120,105,1,187.96,111.13,47,17,28,36,"799","2","3","1",5,"180","97",444,5,"1",0.4833152
"91","1",30,120,105,1,187.96,111.13,47,17,28,36,"10599","2","1","1",5,"180","98",700,5,"1",0.3333737
"92","1",30,120,105,1,187.96,111.13,47,17,28,36,"14055","1","2","2",6,"0","99",803,6,"1",0.3500406
"93","1",30,120,105,1,187.96,111.13,47,17,28,36,"7999","2","1","2",5,"180","100",214,5,"1",0.4501497
"94","1",30,120,105,1,187.96,111.13,47,17,28,36,"499","2","1","2",6,"0","101",439,6,"1",0.4000363
"95","1",30,120,105,1,187.96,111.13,47,17,28,36,"2099","2","1","2",5,"180","102",478,5,"1",0.383348
"96","1",30,120,105,1,187.96,111.13,47,17,28,36,"3355","1","2","2",6,"0","103",527,6,"1",0.3501411
"97","1",30,120,105,1,187.96,111.13,47,17,28,36,"6955","1","2","1",5,"180","105",188,5,"1",0.6167903
"98","1",30,120,105,1,187.96,111.13,47,17,28,36,"1699","2","1","1",5,"180","106",40,5,"1",0.4167844
"99","1",30,120,105,1,187.96,111.13,47,17,28,36,"14355","1","2","1",6,"0","107",389,6,"1",0.4500231
"100","1",30,120,105,1,187.96,111.13,47,17,28,36,"6955","1","3","1",5,"180","108",612,5,"1",0.3833704
"101","1",30,120,105,1,187.96,111.13,47,17,28,36,"12199","2","3","2",5,"180","109",318,5,"1",0.4833983
"102","1",30,120,105,1,187.96,111.13,47,17,28,36,"1699","2","3","1",6,"0","110",465,6,"1",0.5834526
"103","1",30,120,105,1,187.96,111.13,47,17,28,36,"1099","2","1","1",5,"180","111",28,5,"1",0.751483
"104","1",30,120,105,1,187.96,111.13,47,17,28,36,"3899","2","2","1",5,"180","113",116,5,"1",0.6334111
"105","1",30,120,105,1,187.96,111.13,47,17,28,36,"17255","1","1","1",6,"0","114",421,6,"1",0.3666945
"106","1",30,120,105,1,187.96,111.13,47,17,28,36,"1199","2","2","1",5,"180","115",32,5,"1",0.5501262
"107","1",30,120,105,1,187.96,111.13,47,17,28,36,"10599","2","3","2",6,"0","116",699,6,"1",0.3666847
"108","1",30,120,105,1,187.96,111.13,47,17,28,36,"10155","1","3","2",5,"180","117",258,5,"1",0.4011451
"109","1",30,120,105,1,187.96,111.13,47,17,28,36,"15899","2","2","1",6,"0","118",413,6,"1",0.366704
"110","1",30,120,105,1,187.96,111.13,47,17,28,36,"13199","2","3","2",5,"180","119",354,5,"1",0.3833973
"111","1",30,120,105,1,187.96,111.13,47,17,28,36,"17355","1","3","1",6,"0","120",849,6,"1",0.4666969
"112","1",30,120,105,1,187.96,111.13,47,17,28,36,"10555","1","3","1",5,"180","121",696,5,"1",0.3666871
"113","1",30,120,105,1,187.96,111.13,47,17,28,36,"12699","2","3","2",5,"180","122",762,5,"1",0.4500976
"114","1",30,120,105,1,187.96,111.13,47,17,28,36,"11599","2","1","2",6,"0","123",727,6,"1",0.3501244
"115","1",30,120,105,1,187.96,111.13,47,17,28,36,"299","2","2","2",6,"0","124",431,6,"1",0.3667812
"116","1",30,120,105,1,187.96,111.13,47,17,28,36,"4799","2","1","2",5,"180","125",562,5,"1",0.4168455
"117","1",30,120,105,1,187.96,111.13,47,17,28,36,"11599","2","2","1",5,"180","126",728,5,"1",0.3674198
"118","1",30,120,105,1,187.96,111.13,47,17,28,36,"15299","2","1","2",6,"0","128",403,6,"1",0.4667871
"119","1",30,120,105,1,187.96,111.13,47,17,28,36,"8799","2","3","2",6,"0","129",231,6,"1",0.4667167
"120","1",30,120,105,1,187.96,111.13,47,17,28,36,"2799","2","2","2",6,"0","130",503,6,"1",0.316693
"121","1",30,120,105,1,187.96,111.13,47,17,28,36,"14399","2","3","2",5,"180","131",390,5,"1",0.3833768
"122","1",30,120,105,1,187.96,111.13,47,17,28,36,"8699","2","2","2",5,"180","132",230,5,"1",0.3014354
"123","1",30,120,105,1,187.96,111.13,47,17,28,36,"399","2","2","1",5,"180","133",8,5,"1",0.4167874
"124","1",30,120,105,1,187.96,111.13,47,17,28,36,"12555","1","2","2",5,"180","134",758,5,"1",0.3833985
"125","1",30,120,105,1,187.96,111.13,47,17,28,36,"11099","2","1","1",5,"180","135",292,5,"1",0.3835962
"126","1",30,120,105,1,187.96,111.13,47,17,28,36,"10999","2","2","2",5,"180","136",290,5,"1",0.3501279
"127","1",30,120,105,1,187.96,111.13,47,17,28,36,"7199","2","3","2",6,"0","137",195,6,"1",0.2834739
"128","1",30,120,105,1,187.96,111.13,47,17,28,36,"14699","2","1","2",6,"0","138",823,6,"1",0.3166579
"129","1",30,120,105,1,187.96,111.13,47,17,28,36,"2299","2","2","2",5,"180","139",62,5,"1",0.4000498
"130","1",30,120,105,1,187.96,111.13,47,17,28,36,"2655","1","1","1",5,"180","140",496,5,"1",0.4168103
"131","1",30,120,105,1,187.96,111.13,47,17,28,36,"17255","1","3","2",5,"180","141",846,5,"1",0.3512257
"132","1",30,120,105,1,187.96,111.13,47,17,28,36,"4299","2","2","2",5,"180","142",554,5,"1",0.3000397
"133","1",30,120,105,1,187.96,111.13,47,17,28,36,"15299","2","2","2",5,"180","143",830,5,"1",0.3834223
"134","1",30,120,105,1,187.96,111.13,47,17,28,36,"2099","2","2","1",6,"0","144",53,6,"1",0.3833467
"135","1",30,120,105,1,187.96,111.13,47,17,28,36,"999","2","2","2",5,"180","145",26,5,"1",0.2668064
"136","1",30,120,105,1,187.96,111.13,47,17,28,36,"3399","2","2","1",5,"180","146",104,5,"1",0.5167137
"137","1",30,120,105,1,187.96,111.13,47,17,28,36,"3699","2","1","1",6,"0","147",109,6,"1",0.3334233
"138","1",30,120,105,1,187.96,111.13,47,17,28,36,"9699","2","1","2",5,"180","148",250,5,"1",0.3168106
"139","1",30,120,105,1,187.96,111.13,47,17,28,36,"10855","1","2","1",5,"180","149",284,5,"1",0.3668195
"140","1",30,120,105,1,187.96,111.13,47,17,28,36,"11755","1","2","2",5,"180","150",734,5,"1",0.3675785
"141","1",30,120,105,1,187.96,111.13,47,17,28,36,"9699","2","2","2",6,"0","151",251,6,"1",0.3500338
"142","1",30,120,105,1,187.96,111.13,47,17,28,36,"8499","2","3","2",6,"0","152",651,6,"1",0.3000448
"143","1",30,120,105,1,187.96,111.13,47,17,28,36,"7399","2","1","1",5,"180","153",628,5,"1",0.3499955
"144","1",30,120,105,1,187.96,111.13,47,17,28,36,"9599","2","1","2",6,"0","154",247,6,"1",0.3334187
"145","1",30,120,105,1,187.96,111.13,47,17,28,36,"4155","1","3","1",5,"180","155",120,5,"1",0.3500042
"146","1",30,120,105,1,187.96,111.13,47,17,28,36,"1899","2","2","2",5,"180","156",50,5,"1",0.2834846
"147","1",30,120,105,1,187.96,111.13,47,17,28,36,"11199","2","3","2",5,"180","157",294,5,"1",0.3500476
"148","1",30,120,105,1,187.96,111.13,47,17,28,36,"10199","2","3","2",6,"0","158",687,6,"1",0.3178594
"149","1",30,120,105,1,187.96,111.13,47,17,28,36,"12999","2","3","2",6,"0","159",771,6,"1",0.3166647
"150","1",30,120,105,1,187.96,111.13,47,17,28,36,"7599","2","3","2",5,"180","160",630,5,"1",0.3333483
"151","1",30,120,105,1,187.96,111.13,47,17,28,36,"1255","1","1","2",5,"180","161",34,5,"1",0.3334603
"152","1",30,120,105,1,187.96,111.13,47,17,28,36,"2799","2","3","2",6,"0","162",75,6,"1",0.6333972
"153","1",30,120,105,1,187.96,111.13,47,17,28,36,"14199","2","3","1",6,"0","163",381,6,"1",0.5668007
"154","1",30,120,105,1,187.96,111.13,47,17,28,36,"12499","2","1","2",5,"180","164",754,5,"1",0.3834041
"155","1",30,120,105,1,187.96,111.13,47,17,28,36,"16299","2","3","1",6,"0","165",417,6,"1",0.4667111
"156","1",30,120,105,1,187.96,111.13,47,17,28,36,"14355","1","1","2",5,"180","166",814,5,"1",0.3842722
"157","1",30,120,105,1,187.96,111.13,47,17,28,36,"6199","2","3","1",5,"180","167",588,5,"1",0.6833737
"158","1",30,120,105,1,187.96,111.13,47,17,28,36,"10455","1","3","2",6,"0","168",267,6,"1",0.3502674
"159","1",30,120,105,1,187.96,111.13,47,17,28,36,"6855","1","1","2",6,"0","169",607,6,"1",0.2499679
"160","1",30,120,105,1,187.96,111.13,47,17,28,36,"7099","2","2","2",5,"180","170",194,5,"1",0.3334252
"161","1",30,120,105,1,187.96,111.13,47,17,28,36,"10355","1","2","2",5,"180","171",266,5,"1",0.333346
"162","1",30,120,105,1,187.96,111.13,47,17,28,36,"8499","2","2","2",6,"0","172",227,6,"1",0.3000422
"163","1",30,120,105,1,187.96,111.13,47,17,28,36,"6099","2","3","2",6,"0","173",159,6,"1",0.3000164
"164","1",30,120,105,1,187.96,111.13,47,17,28,36,"10155","1","2","1",5,"180","175",260,5,"1",0.4357925
"165","1",30,120,105,1,187.96,111.13,47,17,28,36,"10099","2","3","1",6,"0","176",681,6,"1",0.3499316
"166","1",30,120,105,1,187.96,111.13,47,17,28,36,"7099","2","2","1",5,"180","177",620,5,"1",0.4500242
"167","1",30,120,105,1,187.96,111.13,47,17,28,36,"4999","2","2","1",6,"0","178",569,6,"1",0.3833808
"168","1",30,120,105,1,187.96,111.13,47,17,28,36,"12499","2","3","2",6,"0","179",327,6,"1",0.4000502
"169","1",30,120,105,1,187.96,111.13,47,17,28,36,"12355","1","2","2",5,"180","180",326,5,"1",0.3167218
"170","1",30,120,105,1,187.96,111.13,47,17,28,36,"8099","2","2","2",5,"180","182",218,5,"1",0.3174581
"171","1",30,120,105,1,187.96,111.13,47,17,28,36,"5299","2","3","2",5,"180","183",570,5,"1",0.3336832
"172","1",30,120,105,1,187.96,111.13,47,17,28,36,"15799","2","2","2",5,"180","184",410,5,"1",0.3666918
"173","1",30,120,105,1,187.96,111.13,47,17,28,36,"7699","2","2","2",6,"0","185",635,6,"1",0.3334079
"174","1",30,120,105,1,187.96,111.13,47,17,28,36,"10555","1","1","1",6,"0","186",697,6,"1",0.5000221
"175","1",30,120,105,1,187.96,111.13,47,17,28,36,"15399","2","1","2",5,"180","187",406,5,"1",0.4001477
"176","1",30,120,105,1,187.96,111.13,47,17,28,36,"1899","2","1","1",6,"0","188",49,6,"1",0.3500356
"177","1",30,120,105,1,187.96,111.13,47,17,28,36,"1799","2","3","2",5,"180","189",42,5,"1",0.3501432
"178","1",30,120,105,1,187.96,111.13,47,17,28,36,"4899","2","1","1",6,"0","190",565,6,"1",0.3506404
"179","1",30,120,105,1,187.96,111.13,47,17,28,36,"7199","2","3","1",6,"0","191",621,6,"1",0.31679
"180","1",30,120,105,1,187.96,111.13,47,17,28,36,"2799","2","1","1",5,"180","192",76,5,"1",0.3000232
"181","1",30,120,105,1,187.96,111.13,47,17,28,36,"13899","2","3","2",5,"180","193",798,5,"1",0.4001476
"182","1",30,120,105,1,187.96,111.13,47,17,28,36,"6699","2","2","1",6,"0","194",605,6,"1",0.3166838
"183","1",30,120,105,1,187.96,111.13,47,17,28,36,"899","2","3","2",6,"0","195",447,6,"1",0.3835625
"184","1",30,120,105,1,187.96,111.13,47,17,28,36,"4999","2","1","1",5,"180","196",568,5,"1",0.3000448
"185","1",30,120,105,1,187.96,111.13,47,17,28,36,"11199","2","3","1",5,"180","197",720,5,"1",0.3510067
"186","1",30,120,105,1,187.96,111.13,47,17,28,36,"5299","2","2","1",5,"180","198",572,5,"1",0.3834175
"187","1",30,120,105,1,187.96,111.13,47,17,28,36,"2155","1","2","2",5,"180","199",482,5,"1",0.4667373
"188","1",30,120,105,1,187.96,111.13,47,17,28,36,"12855","1","1","1",6,"0","200",769,6,"1",0.3167581
"189","1",30,120,105,1,187.96,111.13,47,17,28,36,"12199","2","2","2",5,"180","201",746,5,"1",0.3833308
"190","1",30,120,105,1,187.96,111.13,47,17,28,36,"11199","2","2","2",5,"180","202",722,5,"1",0.4166548
"191","1",30,120,105,1,187.96,111.13,47,17,28,36,"5699","2","1","1",6,"0","203",577,6,"1",0.30175
"192","1",30,120,105,1,187.96,111.13,47,17,28,36,"8199","2","1","1",5,"180","204",220,5,"1",0.3667148
"193","1",30,120,105,1,187.96,111.13,47,17,28,36,"12499","2","3","1",6,"0","205",753,6,"1",0.4500667
"194","1",30,120,105,1,187.96,111.13,47,17,28,36,"12155","1","1","2",5,"180","206",742,5,"1",0.3504438
"195","1",30,120,105,1,187.96,111.13,47,17,28,36,"3299","2","2","2",5,"180","207",98,5,"1",0.3167021
"196","1",30,120,105,1,187.96,111.13,47,17,28,36,"6855","1","2","2",5,"180","208",182,5,"1",0.3501409
"197","1",30,120,105,1,187.96,111.13,47,17,28,36,"12155","1","3","2",6,"0","209",315,6,"1",0.3834105
"198","1",30,120,105,1,187.96,111.13,47,17,28,36,"14399","2","3","1",5,"180","210",816,5,"1",0.3166271
"199","1",30,120,105,1,187.96,111.13,47,17,28,36,"4199","2","2","2",6,"0","211",551,6,"1",0.3167724
"200","1",30,120,105,1,187.96,111.13,47,17,28,36,"499","2","3","2",5,"180","212",438,5,"1",0.3346514
"201","1",30,120,105,1,187.96,111.13,47,17,28,36,"5799","2","2","1",6,"0","213",581,6,"1",0.4001282
"202","1",30,120,105,1,187.96,111.13,47,17,28,36,"5799","2","3","2",6,"0","214",579,6,"1",0.3834666
"203","1",30,120,105,1,187.96,111.13,47,17,28,36,"8099","2","1","2",6,"0","215",643,6,"1",0.4501319
"204","1",30,120,105,1,187.96,111.13,47,17,28,36,"499","2","2","1",5,"180","216",440,5,"1",0.3334491
"205","1",30,120,105,1,187.96,111.13,47,17,28,36,"13899","2","2","2",5,"180","217",374,5,"1",0.4833157
"206","1",30,120,105,1,187.96,111.13,47,17,28,36,"2299","2","2","1",5,"180","218",488,5,"1",0.4501021
"207","1",30,120,105,1,187.96,111.13,47,17,28,36,"199","2","2","1",5,"180","219",428,5,"1",0.3833757
"208","1",30,120,105,1,187.96,111.13,47,17,28,36,"6355","1","3","1",5,"180","220",168,5,"1",0.3345677
"209","1",30,120,105,1,187.96,111.13,47,17,28,36,"1899","2","1","2",6,"0","221",475,6,"1",0.3001375
"210","1",30,120,105,1,187.96,111.13,47,17,28,36,"11099","2","3","1",6,"0","223",717,6,"1",0.3666989
"211","1",30,120,105,1,187.96,111.13,47,17,28,36,"799","2","3","2",5,"180","224",18,5,"1",0.3353086
"212","1",30,120,105,1,187.96,111.13,47,17,28,36,"799","2","2","1",5,"180","225",20,5,"1",0.4333773
"213","1",30,120,105,1,187.96,111.13,47,17,28,36,"3099","2","2","1",6,"0","226",89,6,"1",0.3166605
"214","1",30,120,105,1,187.96,111.13,47,17,28,36,"13855","1","2","1",6,"0","227",797,6,"1",0.3001262
"215","1",30,120,105,1,187.96,111.13,47,17,28,36,"13699","2","3","1",5,"180","228",792,5,"1",0.3833749
"216","1",30,120,105,1,187.96,111.13,47,17,28,36,"2899","2","3","1",5,"180","229",504,5,"1",0.5002454
"217","1",30,120,105,1,187.96,111.13,47,17,28,36,"7299","2","3","1",5,"180","230",624,5,"1",0.4500216
"218","1",30,120,105,1,187.96,111.13,47,17,28,36,"9599","2","3","1",5,"180","231",672,5,"1",0.3333977
"219","1",30,120,105,1,187.96,111.13,47,17,28,36,"3155","1","1","2",6,"0","232",91,6,"1",0.2667965
"220","1",30,120,105,1,187.96,111.13,47,17,28,36,"1855","1","3","2",6,"0","233",471,6,"1",0.4166815
"221","1",30,120,105,1,187.96,111.13,47,17,28,36,"7299","2","3","2",5,"180","234",198,5,"1",0.3668062
"222","1",30,120,105,1,187.96,111.13,47,17,28,36,"15899","2","3","2",6,"0","235",411,6,"1",0.3834529
"223","1",30,120,105,1,187.96,111.13,47,17,28,36,"3399","2","3","2",5,"180","236",102,5,"1",0.3501258
"224","1",30,120,105,1,187.96,111.13,47,17,28,36,"6355","1","2","2",5,"180","237",170,5,"1",0.4667367
"225","1",30,120,105,1,187.96,111.13,47,17,28,36,"13299","2","3","1",5,"180","238",360,5,"1",0.3501462
"226","1",30,120,105,1,187.96,111.13,47,17,28,36,"199","2","1","2",6,"0","239",427,6,"1",0.3500713
"227","1",30,120,105,1,187.96,111.13,47,17,28,36,"14499","2","2","2",6,"0","240",395,6,"1",0.300056
"228","1",30,120,105,1,187.96,111.13,47,17,28,36,"13255","1","2","1",6,"0","241",785,6,"1",0.2834709
"229","1",30,120,105,1,187.96,111.13,47,17,28,36,"11599","2","3","1",5,"180","242",300,5,"1",0.4682836
"230","1",30,120,105,1,187.96,111.13,47,17,28,36,"899","2","3","1",6,"0","243",21,6,"1",0.350047
"231","1",30,120,105,1,187.96,111.13,47,17,28,36,"199","2","3","1",5,"180","244",0,5,"1",0.4983857
"232","1",30,120,105,1,187.96,111.13,47,17,28,36,"14499","2","3","2",6,"0","245",819,6,"1",0.3667716
"233","1",30,120,105,1,187.96,111.13,47,17,28,36,"4999","2","2","2",6,"0","246",143,6,"1",0.3334103
"234","1",30,120,105,1,187.96,111.13,47,17,28,36,"12299","2","2","2",6,"0","247",323,6,"1",0.2833698
"235","1",30,120,105,1,187.96,111.13,47,17,28,36,"13255","1","1","1",5,"180","248",784,5,"1",0.3000293
"236","1",30,120,105,1,187.96,111.13,47,17,28,36,"1199","2","3","1",5,"180","250",456,5,"1",0.3188388
"237","1",30,120,105,1,187.96,111.13,47,17,28,36,"6299","2","1","1",5,"180","251",592,5,"1",0.3000377
"238","1",30,120,105,1,187.96,111.13,47,17,28,36,"7699","2","1","1",5,"180","252",208,5,"1",0.4188343
"239","1",30,120,105,1,187.96,111.13,47,17,28,36,"10555","1","2","2",5,"180","254",698,5,"1",0.3167754
"240","1",30,120,105,1,187.96,111.13,47,17,28,36,"2999","2","3","2",5,"180","256",510,5,"1",0.3666811
"241","1",30,120,105,1,187.96,111.13,47,17,28,36,"12499","2","2","2",6,"0","257",755,6,"1",0.436071
"242","1",30,120,105,1,187.96,111.13,47,17,28,36,"4899","2","2","2",5,"180","258",566,5,"1",0.3667008
"243","1",30,120,105,1,187.96,111.13,47,17,28,36,"3599","2","3","1",6,"0","259",105,6,"1",0.4850901
"244","1",30,120,105,1,187.96,111.13,47,17,28,36,"1855","1","1","2",5,"180","260",46,5,"1",0.3000454
"245","1",30,120,105,1,187.96,111.13,47,17,28,36,"10699","2","1","1",6,"0","261",277,6,"1",0.3833895
"246","1",30,120,105,1,187.96,111.13,47,17,28,36,"12799","2","1","1",5,"180","262",340,5,"1",0.3833822
"247","1",30,120,105,1,187.96,111.13,47,17,28,36,"2099","2","2","2",6,"0","263",479,6,"1",0.300089
"248","1",30,120,105,1,187.96,111.13,47,17,28,36,"12799","2","1","2",5,"180","264",766,5,"1",0.3334162
"249","1",30,120,105,1,187.96,111.13,47,17,28,36,"2899","2","1","1",6,"0","265",505,6,"1",0.4167832
"250","1",30,120,105,1,187.96,111.13,47,17,28,36,"12555","1","2","1",5,"180","266",332,5,"1",0.335285
"251","1",30,120,105,1,187.96,111.13,47,17,28,36,"6955","1","2","2",5,"180","267",614,5,"1",0.466775
"252","1",30,120,105,1,187.96,111.13,47,17,28,36,"7999","2","3","2",6,"0","268",639,6,"1",0.3000566
"253","1",30,120,105,1,187.96,111.13,47,17,28,36,"8399","2","1","1",6,"0","269",649,6,"1",0.3167002
"254","1",30,120,105,1,187.96,111.13,47,17,28,36,"11699","2","1","1",5,"180","270",304,5,"1",0.3334342
"255","1",30,120,105,1,187.96,111.13,47,17,28,36,"2599","2","2","1",5,"180","271",68,5,"1",0.3334275
"256","1",30,120,105,1,187.96,111.13,47,17,28,36,"13855","1","3","2",6,"0","272",795,6,"1",0.3168035
"257","1",30,120,105,1,187.96,111.13,47,17,28,36,"7699","2","2","1",6,"0","273",209,6,"1",0.4000324
"258","1",30,120,105,1,187.96,111.13,47,17,28,36,"6399","2","1","2",5,"180","274",598,5,"1",0.3667657
"259","1",30,120,105,1,187.96,111.13,47,17,28,36,"9899","2","3","2",5,"180","275",678,5,"1",0.4500409
"260","1",30,120,105,1,187.96,111.13,47,17,28,36,"15399","2","2","1",6,"0","276",833,6,"1",0.2667709
"261","1",30,120,105,1,187.96,111.13,47,17,28,36,"12855","1","1","2",6,"0","277",343,6,"1",0.3667208
"262","1",30,120,105,1,187.96,111.13,47,17,28,36,"4899","2","2","1",5,"180","278",140,5,"1",0.383405
"263","1",30,120,105,1,187.96,111.13,47,17,28,36,"10855","1","3","2",5,"180","279",282,5,"1",0.4499887
"264","1",30,120,105,1,187.96,111.13,47,17,28,36,"13199","2","2","2",5,"180","280",782,5,"1",0.35014
"265","1",30,120,105,1,187.96,111.13,47,17,28,36,"8699","2","3","2",5,"180","281",654,5,"1",0.3501421
"266","1",30,120,105,1,187.96,111.13,47,17,28,36,"14299","2","1","1",6,"0","283",385,6,"1",0.3666821
"267","1",30,120,105,1,187.96,111.13,47,17,28,36,"14355","1","3","2",6,"0","284",387,6,"1",0.3833552
"268","1",30,120,105,1,187.96,111.13,47,17,28,36,"16299","2","2","1",6,"0","285",845,6,"1",0.4001193
"269","1",30,120,105,1,187.96,111.13,47,17,28,36,"3699","2","3","1",5,"180","286",108,5,"1",0.3333813
"270","1",30,120,105,1,187.96,111.13,47,17,28,36,"4399","2","3","1",6,"0","287",129,6,"1",0.41676
"271","1",30,120,105,1,187.96,111.13,47,17,28,36,"10155","1","2","2",5,"180","288",686,5,"1",0.4167809
"272","1",30,120,105,1,187.96,111.13,47,17,28,36,"7299","2","1","2",6,"0","289",199,6,"1",0.2834368
"273","1",30,120,105,1,187.96,111.13,47,17,28,36,"6955","1","1","1",6,"0","290",613,6,"1",0.4999842
"274","1",30,120,105,1,187.96,111.13,47,17,28,36,"5799","2","2","2",6,"0","291",155,6,"1",0.3334072
"275","1",30,120,105,1,187.96,111.13,47,17,28,36,"10355","1","1","2",6,"0","292",691,6,"1",0.3000474
"276","1",30,120,105,1,187.96,111.13,47,17,28,36,"2655","1","2","2",6,"0","294",71,6,"1",0.3834578
"277","1",30,120,105,1,187.96,111.13,47,17,28,36,"12599","2","3","2",6,"0","295",759,6,"1",0.3166152
"278","1",30,120,105,1,187.96,111.13,47,17,28,36,"7399","2","1","2",5,"180","296",202,5,"1",0.316712
"279","1",30,120,105,1,187.96,111.13,47,17,28,36,"6199","2","1","2",6,"0","297",163,6,"1",0.3000715
"280","1",30,120,105,1,187.96,111.13,47,17,28,36,"14299","2","1","2",6,"0","298",811,6,"1",0.3001278
"281","1",30,120,105,1,187.96,111.13,47,17,28,36,"9199","2","2","2",5,"180","299",662,5,"1",0.3834535
"282","1",30,120,105,1,187.96,111.13,47,17,28,36,"1099","2","3","2",6,"0","300",27,6,"1",0.2834512
"283","1",30,120,105,1,187.96,111.13,47,17,28,36,"13155","1","2","1",6,"0","302",353,6,"1",0.4001236
"284","1",30,120,105,1,187.96,111.13,47,17,28,36,"2099","2","3","1",6,"0","303",477,6,"1",0.2834671
"285","1",30,120,105,1,187.96,111.13,47,17,28,36,"2955","1","1","1",5,"180","304",508,5,"1",0.4500128
"286","1",30,120,105,1,187.96,111.13,47,17,28,36,"10455","1","1","1",5,"180","305",268,5,"1",0.3167017
"287","1",30,120,105,1,187.96,111.13,47,17,28,36,"6599","2","3","2",5,"180","306",174,5,"1",0.4000401
"288","1",30,120,105,1,187.96,111.13,47,17,28,36,"11799","2","3","2",6,"0","307",735,6,"1",0.2834089
"289","1",30,120,105,1,187.96,111.13,47,17,28,36,"9199","2","3","2",5,"180","308",234,5,"1",0.4001137
"290","1",30,120,105,1,187.96,111.13,47,17,28,36,"4599","2","2","2",5,"180","309",134,5,"1",0.3833732
"291","1",30,120,105,1,187.96,111.13,47,17,28,36,"9199","2","1","1",6,"0","311",661,6,"1",0.3334786
"292","1",30,120,105,1,187.96,111.13,47,17,28,36,"13499","2","2","1",6,"0","312",365,6,"1",0.383382
"293","1",30,120,105,1,187.96,111.13,47,17,28,36,"599","2","1","1",5,"180","313",16,5,"1",0.3500533
"294","1",30,120,105,1,187.96,111.13,47,17,28,36,"3599","2","1","2",5,"180","314",106,5,"1",0.3333725
"295","1",30,120,105,1,187.96,111.13,47,17,28,36,"5599","2","2","1",6,"0","315",149,6,"1",0.3166978
"296","1",30,120,105,1,187.96,111.13,47,17,28,36,"13499","2","3","1",6,"0","316",789,6,"1",0.401343
"297","1",30,120,105,1,187.96,111.13,47,17,28,36,"9255","1","3","2",6,"0","317",663,6,"1",0.3333698
"298","1",30,120,105,1,187.96,111.13,47,17,28,36,"12555","1","1","2",6,"0","318",331,6,"1",0.316693
"299","1",30,120,105,1,187.96,111.13,47,17,28,36,"16199","2","3","1",5,"180","319",840,5,"1",0.3500111
"300","1",30,120,105,1,187.96,111.13,47,17,28,36,"13699","2","1","1",6,"0","320",793,6,"1",0.3666959
"301","1",30,120,105,1,187.96,111.13,47,17,28,36,"8399","2","2","1",5,"180","321",224,5,"1",0.3334273
"302","1",30,120,105,1,187.96,111.13,47,17,28,36,"10999","2","3","2",5,"180","323",714,5,"1",0.3833057
"303","1",30,120,105,1,187.96,111.13,47,17,28,36,"6599","2","2","2",5,"180","324",602,5,"1",0.3500431
"304","1",30,120,105,1,187.96,111.13,47,17,28,36,"8099","2","3","2",5,"180","325",642,5,"1",0.366729
"305","1",30,120,105,1,187.96,111.13,47,17,28,36,"2599","2","1","1",6,"0","326",493,6,"1",0.5000986
"306","1",30,120,105,1,187.96,111.13,47,17,28,36,"799","2","2","2",5,"180","327",446,5,"1",0.416768
"307","1",30,120,105,1,187.96,111.13,47,17,28,36,"14355","1","3","1",6,"0","328",813,6,"1",0.3334111
"308","1",30,120,105,1,187.96,111.13,47,17,28,36,"10599","2","2","2",6,"0","329",275,6,"1",0.3168225
"309","1",30,120,105,1,187.96,111.13,47,17,28,36,"2699","2","3","1",5,"180","330",72,5,"1",0.3000416
"310","1",30,120,105,1,187.96,111.13,47,17,28,36,"10355","1","3","1",5,"180","331",264,5,"1",0.3501847
"311","1",30,120,105,1,187.96,111.13,47,17,28,36,"6899","2","1","1",5,"180","332",184,5,"1",0.3000264
"312","1",30,120,105,1,187.96,111.13,47,17,28,36,"2899","2","1","2",6,"0","333",79,6,"1",0.2501422
"313","1",30,120,105,1,187.96,111.13,47,17,28,36,"199","2","2","2",5,"180","335",2,5,"1",0.5166268
"314","1",30,120,105,1,187.96,111.13,47,17,28,36,"3699","2","3","2",5,"180","337",534,5,"1",0.8500256
"315","1",30,120,105,1,187.96,111.13,47,17,28,36,"4199","2","3","2",6,"0","338",123,6,"1",0.300076
"316","1",30,120,105,1,187.96,111.13,47,17,28,36,"11599","2","2","2",5,"180","339",302,5,"1",0.5499902
"317","1",30,120,105,1,187.96,111.13,47,17,28,36,"9399","2","2","2",5,"180","340",242,5,"1",0.350043
"318","1",30,120,105,1,187.96,111.13,47,17,28,36,"1899","2","3","2",5,"180","341",474,5,"1",0.383374
"319","1",30,120,105,1,187.96,111.13,47,17,28,36,"17255","1","2","2",5,"180","342",422,5,"1",0.3510451
"320","1",30,120,105,1,187.96,111.13,47,17,28,36,"2955","1","2","1",6,"0","343",509,6,"1",0.4173198
"321","1",30,120,105,1,187.96,111.13,47,17,28,36,"5899","2","3","2",5,"180","344",582,5,"1",0.4167153
"322","1",30,120,105,1,187.96,111.13,47,17,28,36,"1399","2","3","2",5,"180","345",462,5,"1",0.3667865
"323","1",30,120,105,1,187.96,111.13,47,17,28,36,"10799","2","2","1",6,"0","346",281,6,"1",0.3167116
"324","1",30,120,105,1,187.96,111.13,47,17,28,36,"12699","2","3","1",5,"180","347",336,5,"1",0.2834448
"325","1",30,120,105,1,187.96,111.13,47,17,28,36,"11755","1","3","1",5,"180","348",732,5,"1",0.3518719
"326","1",30,120,105,1,187.96,111.13,47,17,28,36,"2255","1","2","1",6,"0","349",485,6,"1",0.4167709
"327","1",30,120,105,1,187.96,111.13,47,17,28,36,"16199","2","3","2",5,"180","350",414,5,"1",0.3333892
"328","1",30,120,105,1,187.96,111.13,47,17,28,36,"14399","2","1","2",6,"0","351",391,6,"1",0.3167427
"329","1",30,120,105,1,187.96,111.13,47,17,28,36,"12099","2","3","2",5,"180","352",738,5,"1",0.4166639
"330","1",30,120,105,1,187.96,111.13,47,17,28,36,"9599","2","3","2",5,"180","353",246,5,"1",0.4666812
"331","1",30,120,105,1,187.96,111.13,47,17,28,36,"13855","1","1","2",5,"180","354",370,5,"1",0.4500865
"332","1",30,120,105,1,187.96,111.13,47,17,28,36,"10699","2","1","2",6,"0","355",703,6,"1",0.350706
"333","1",30,120,105,1,187.96,111.13,47,17,28,36,"11755","1","1","1",6,"0","356",733,6,"1",0.4336285
"334","1",30,120,105,1,187.96,111.13,47,17,28,36,"10099","2","1","1",5,"180","357",256,5,"1",0.3168005
"335","1",30,120,105,1,187.96,111.13,47,17,28,36,"6999","2","3","2",6,"0","358",615,6,"1",0.2667376
"336","1",30,120,105,1,187.96,111.13,47,17,28,36,"2399","2","3","2",6,"0","359",63,6,"1",0.2833537
"337","1",30,120,105,1,187.96,111.13,47,17,28,36,"12155","1","2","2",6,"0","360",743,6,"1",0.350088
"338","1",30,120,105,1,187.96,111.13,47,17,28,36,"9599","2","1","1",6,"0","362",673,6,"1",0.5010855
"339","1",30,120,105,1,187.96,111.13,47,17,28,36,"599","2","3","1",6,"0","363",441,6,"1",0.3333499
"340","1",30,120,105,1,187.96,111.13,47,17,28,36,"8499","2","1","2",5,"180","364",226,5,"1",0.4333517
"341","1",30,120,105,1,187.96,111.13,47,17,28,36,"2655","1","1","2",5,"180","365",70,5,"1",0.3834222
"342","1",30,120,105,1,187.96,111.13,47,17,28,36,"13899","2","2","1",5,"180","366",800,5,"1",0.4500296
"343","1",30,120,105,1,187.96,111.13,47,17,28,36,"14299","2","3","2",5,"180","367",810,5,"1",0.4334077
"344","1",30,120,105,1,187.96,111.13,47,17,28,36,"14199","2","2","1",6,"0","368",809,6,"1",0.3850394
"345","1",30,120,105,1,187.96,111.13,47,17,28,36,"6399","2","2","1",6,"0","369",173,6,"1",0.3667422
"346","1",30,120,105,1,187.96,111.13,47,17,28,36,"11399","2","3","1",6,"0","370",297,6,"1",0.2834149
"347","1",30,120,105,1,187.96,111.13,47,17,28,36,"12299","2","3","2",6,"0","371",747,6,"1",0.4167428
"348","1",30,120,105,1,187.96,111.13,47,17,28,36,"6399","2","3","2",6,"0","372",171,6,"1",0.283469
"349","1",30,120,105,1,187.96,111.13,47,17,28,36,"3799","2","3","1",6,"0","373",537,6,"1",0.3666973
"350","1",30,120,105,1,187.96,111.13,47,17,28,36,"7699","2","1","2",5,"180","374",634,5,"1",0.3333957
"351","1",30,120,105,1,187.96,111.13,47,17,28,36,"7599","2","2","1",5,"180","375",632,5,"1",0.3687439
"352","1",30,120,105,1,187.96,111.13,47,17,28,36,"6699","2","1","2",5,"180","376",178,5,"1",0.5334713
"353","1",30,120,105,1,187.96,111.13,47,17,28,36,"14155","1","1","1",6,"0","377",805,6,"1",0.2667511
"354","1",30,120,105,1,187.96,111.13,47,17,28,36,"10899","2","3","2",6,"0","378",711,6,"1",0.2999816
"355","1",30,120,105,1,187.96,111.13,47,17,28,36,"10099","2","2","2",6,"0","380",683,6,"1",0.3000364
"356","1",30,120,105,1,187.96,111.13,47,17,28,36,"6299","2","3","1",6,"0","381",165,6,"1",0.3168066
"357","1",30,120,105,1,187.96,111.13,47,17,28,36,"3299","2","2","1",5,"180","382",524,5,"1",0.433495
"358","1",30,120,105,1,187.96,111.13,47,17,28,36,"2399","2","3","1",6,"0","383",489,6,"1",0.4000505
"359","1",30,120,105,1,187.96,111.13,47,17,28,36,"2155","1","3","2",5,"180","384",54,5,"1",0.4833007
"360","1",30,120,105,1,187.96,111.13,47,17,28,36,"455","1","3","2",6,"0","385",435,6,"1",0.3011063
"361","1",30,120,105,1,187.96,111.13,47,17,28,36,"10899","2","2","2",6,"0","386",287,6,"1",0.4168056
"362","1",30,120,105,1,187.96,111.13,47,17,28,36,"12355","1","3","2",5,"180","387",750,5,"1",0.3500616
"363","1",30,120,105,1,187.96,111.13,47,17,28,36,"10455","1","1","2",5,"180","388",694,5,"1",0.3667615
"364","1",30,120,105,1,187.96,111.13,47,17,28,36,"1255","1","2","2",6,"0","389",35,6,"1",0.3167157
"365","1",30,120,105,1,187.96,111.13,47,17,28,36,"2155","1","1","2",6,"0","390",55,6,"1",0.3333682
"366","1",30,120,105,1,187.96,111.13,47,17,28,36,"5299","2","3","1",5,"180","391",144,5,"1",0.383355
"367","1",30,120,105,1,187.96,111.13,47,17,28,36,"12599","2","3","1",6,"0","392",333,6,"1",0.333413
"368","1",30,120,105,1,187.96,111.13,47,17,28,36,"12199","2","3","1",5,"180","393",744,5,"1",0.383405
"369","1",30,120,105,1,187.96,111.13,47,17,28,36,"10099","2","3","2",6,"0","394",255,6,"1",0.3334097
"370","1",30,120,105,1,187.96,111.13,47,17,28,36,"17255","1","2","1",5,"180","395",848,5,"1",0.3500494
"371","1",30,120,105,1,187.96,111.13,47,17,28,36,"15899","2","2","2",6,"0","396",839,6,"1",0.2999816
"372","1",30,120,105,1,187.96,111.13,47,17,28,36,"13299","2","2","2",5,"180","397",362,5,"1",0.4333819
"373","1",30,120,105,1,187.96,111.13,47,17,28,36,"999","2","3","1",5,"180","398",24,5,"1",0.3501011
"374","1",30,120,105,1,187.96,111.13,47,17,28,36,"299","2","3","1",6,"0","399",429,6,"1",0.3667854
"375","1",30,120,105,1,187.96,111.13,47,17,28,36,"1099","2","2","2",6,"0","400",455,6,"1",0.3166643
"376","1",30,120,105,1,187.96,111.13,47,17,28,36,"3399","2","2","2",5,"180","402",530,5,"1",0.4666948
"377","1",30,120,105,1,187.96,111.13,47,17,28,36,"10455","1","2","2",6,"0","403",695,6,"1",0.3166864
"378","1",30,120,105,1,187.96,111.13,47,17,28,36,"7599","2","2","2",5,"180","404",206,5,"1",0.4166906
"379","1",30,120,105,1,187.96,111.13,47,17,28,36,"9255","1","2","1",6,"0","405",665,6,"1",0.4167045
"380","1",30,120,105,1,187.96,111.13,47,17,28,36,"4799","2","3","2",6,"0","406",135,6,"1",0.3001319
"381","1",30,120,105,1,187.96,111.13,47,17,28,36,"14499","2","1","2",5,"180","407",394,5,"1",0.3333588
"382","1",30,120,105,1,187.96,111.13,47,17,28,36,"4099","2","3","1",6,"0","408",117,6,"1",0.3000332
"383","1",30,120,105,1,187.96,111.13,47,17,28,36,"1799","2","3","1",5,"180","409",468,5,"1",0.3167029
"384","1",30,120,105,1,187.96,111.13,47,17,28,36,"5799","2","1","2",5,"180","410",154,5,"1",0.3667767
"385","1",30,120,105,1,187.96,111.13,47,17,28,36,"2899","2","2","2",5,"180","411",506,5,"1",0.4333697
"386","1",30,120,105,1,187.96,111.13,47,17,28,36,"4099","2","3","2",6,"0","412",543,6,"1",0.3333953
"387","1",30,120,105,1,187.96,111.13,47,17,28,36,"999","2","2","1",5,"180","413",452,5,"1",0.4833163
"388","1",30,120,105,1,187.96,111.13,47,17,28,36,"8399","2","1","2",6,"0","414",223,6,"1",0.3167024
"389","1",30,120,105,1,187.96,111.13,47,17,28,36,"499","2","2","2",5,"180","415",14,5,"1",0.3333627
"390","1",30,120,105,1,187.96,111.13,47,17,28,36,"14155","1","3","1",5,"180","416",804,5,"1",0.3333738
"391","1",30,120,105,1,187.96,111.13,47,17,28,36,"2955","1","3","1",6,"0","417",81,6,"1",0.3001369
"392","1",30,120,105,1,187.96,111.13,47,17,28,36,"1099","2","3","1",6,"0","418",453,6,"1",0.35003
"393","1",30,120,105,1,187.96,111.13,47,17,28,36,"15099","2","1","1",5,"180","419",400,5,"1",0.4334167
"394","1",30,120,105,1,187.96,111.13,47,17,28,36,"14299","2","3","1",5,"180","420",384,5,"1",0.3167552
"395","1",30,120,105,1,187.96,111.13,47,17,28,36,"2599","2","1","2",6,"0","421",67,6,"1",0.2834752
"396","1",30,120,105,1,187.96,111.13,47,17,28,36,"16199","2","2","2",5,"180","422",842,5,"1",0.3334257
"397","1",30,120,105,1,187.96,111.13,47,17,28,36,"12299","2","1","1",5,"180","423",748,5,"1",0.316783
"398","1",30,120,105,1,187.96,111.13,47,17,28,36,"5299","2","2","2",5,"180","424",146,5,"1",0.3500228
"399","1",30,120,105,1,187.96,111.13,47,17,28,36,"17355","1","2","2",6,"0","425",851,6,"1",0.2500315
"400","1",30,120,105,1,187.96,111.13,47,17,28,36,"10899","2","3","1",6,"0","426",285,6,"1",0.4167764
"401","1",30,120,105,1,187.96,111.13,47,17,28,36,"6599","2","3","1",5,"180","427",600,5,"1",0.4166652
"402","1",30,120,105,1,187.96,111.13,47,17,28,36,"7699","2","3","2",6,"0","428",207,6,"1",0.2667715
"403","1",30,120,105,1,187.96,111.13,47,17,28,36,"4899","2","3","2",5,"180","429",138,5,"1",0.2834161
"404","1",30,120,105,1,187.96,111.13,47,17,28,36,"455","1","2","1",6,"0","431",437,6,"1",0.3168148
"405","1",30,120,105,1,187.96,111.13,47,17,28,36,"4199","2","1","1",5,"180","433",124,5,"1",0.3833697
"406","1",30,120,105,1,187.96,111.13,47,17,28,36,"12699","2","2","2",5,"180","434",338,5,"1",0.4333564
"407","1",30,120,105,1,187.96,111.13,47,17,28,36,"7299","2","1","1",6,"0","435",625,6,"1",0.3166558
"408","1",30,120,105,1,187.96,111.13,47,17,28,36,"2899","2","2","1",5,"180","436",80,5,"1",0.3667082
"409","1",30,120,105,1,187.96,111.13,47,17,28,36,"299","2","1","2",5,"180","437",430,5,"1",0.3844902
"410","1",30,120,105,1,187.96,111.13,47,17,28,36,"7699","2","3","1",6,"0","438",633,6,"1",0.2833443
"411","1",30,120,105,1,187.96,111.13,47,17,28,36,"4099","2","2","2",6,"0","439",119,6,"1",0.2833862
"412","1",30,120,105,1,187.96,111.13,47,17,28,36,"11799","2","1","2",5,"180","440",310,5,"1",0.3333806
"413","1",30,120,105,1,187.96,111.13,47,17,28,36,"15099","2","3","1",6,"0","441",825,6,"1",0.3333522
"414","1",30,120,105,1,187.96,111.13,47,17,28,36,"6899","2","2","2",6,"0","442",611,6,"1",0.3667834
"415","1",30,120,105,1,187.96,111.13,47,17,28,36,"1799","2","2","2",5,"180","443",470,5,"1",0.3333924
"416","1",30,120,105,1,187.96,111.13,47,17,28,36,"10999","2","1","1",6,"0","444",289,6,"1",0.4000313
"417","1",30,120,105,1,187.96,111.13,47,17,28,36,"3355","1","2","1",6,"0","445",101,6,"1",0.3501248
"418","1",30,120,105,1,187.96,111.13,47,17,28,36,"9255","1","1","2",5,"180","446",238,5,"1",0.3500485
"419","1",30,120,105,1,187.96,111.13,47,17,28,36,"17255","1","3","1",5,"180","447",420,5,"1",0.4683217
"420","1",30,120,105,1,187.96,111.13,47,17,28,36,"599","2","2","2",6,"0","448",443,6,"1",0.2834468
"421","1",30,120,105,1,187.96,111.13,47,17,28,36,"3099","2","1","1",5,"180","449",88,5,"1",0.4000926
"422","1",30,120,105,1,187.96,111.13,47,17,28,36,"8799","2","1","1",5,"180","451",232,5,"1",0.5167816
"423","1",30,120,105,1,187.96,111.13,47,17,28,36,"5599","2","3","2",6,"0","452",147,6,"1",0.3668
"424","1",30,120,105,1,187.96,111.13,47,17,28,36,"14055","1","3","1",6,"0","453",801,6,"1",0.5166828
"425","1",30,120,105,1,187.96,111.13,47,17,28,36,"999","2","1","2",6,"0","454",451,6,"1",0.485293
"426","1",30,120,105,1,187.96,111.13,47,17,28,36,"6299","2","2","2",6,"0","455",167,6,"1",0.333459
"427","1",30,120,105,1,187.96,111.13,47,17,28,36,"12599","2","2","2",6,"0","456",335,6,"1",0.3001438
"428","1",30,120,105,1,187.96,111.13,47,17,28,36,"11699","2","3","2",6,"0","457",303,6,"1",0.3501346
"429","1",30,120,105,1,187.96,111.13,47,17,28,36,"10999","2","3","1",5,"180","458",288,5,"1",0.3667425
"430","1",30,120,105,1,187.96,111.13,47,17,28,36,"6099","2","2","1",6,"0","459",161,6,"1",0.3346266
"431","1",30,120,105,1,187.96,111.13,47,17,28,36,"2955","1","2","2",6,"0","460",83,6,"1",0.3842485
"432","1",30,120,105,1,187.96,111.13,47,17,28,36,"8199","2","2","1",6,"0","461",221,6,"1",0.3834469
"433","1",30,120,105,1,187.96,111.13,47,17,28,36,"1255","1","3","1",6,"0","462",33,6,"1",0.2668389
"434","1",30,120,105,1,187.96,111.13,47,17,28,36,"3355","1","1","2",5,"180","463",526,5,"1",0.4167077
"435","1",30,120,105,1,187.96,111.13,47,17,28,36,"1799","2","1","2",6,"0","465",43,6,"1",0.383471
"436","1",30,120,105,1,187.96,111.13,47,17,28,36,"13299","2","1","1",6,"0","466",361,6,"1",0.4834743
"437","1",30,120,105,1,187.96,111.13,47,17,28,36,"455","1","2","2",6,"0","467",11,6,"1",0.3500622
"438","1",30,120,105,1,187.96,111.13,47,17,28,36,"4199","2","1","2",5,"180","468",550,5,"1",0.316786
"439","1",30,120,105,1,187.96,111.13,47,17,28,36,"12155","1","2","1",6,"0","469",317,6,"1",0.4000533
"440","1",30,120,105,1,187.96,111.13,47,17,28,36,"3799","2","1","2",5,"180","470",538,5,"1",0.3333184
"441","1",30,120,105,1,187.96,111.13,47,17,28,36,"6999","2","2","1",6,"0","471",617,6,"1",0.433425
"442","1",30,120,105,1,187.96,111.13,47,17,28,36,"10199","2","2","2",6,"0","472",263,6,"1",0.3001264
"443","1",30,120,105,1,187.96,111.13,47,17,28,36,"3155","1","3","2",5,"180","475",90,5,"1",0.4334088
"444","1",30,120,105,1,187.96,111.13,47,17,28,36,"3599","2","3","2",6,"0","476",531,6,"1",0.4176596
"445","1",30,120,105,1,187.96,111.13,47,17,28,36,"4299","2","2","1",5,"180","477",128,5,"1",0.333914
"446","1",30,120,105,1,187.96,111.13,47,17,28,36,"4999","2","3","1",6,"0","479",141,6,"1",0.4001319
"447","1",30,120,105,1,187.96,111.13,47,17,28,36,"2955","1","3","2",6,"0","480",507,6,"1",0.3334045
"448","1",30,120,105,1,187.96,111.13,47,17,28,36,"1399","2","2","1",5,"180","481",464,5,"1",0.3500996
"449","1",30,120,105,1,187.96,111.13,47,17,28,36,"15099","2","1","2",5,"180","482",826,5,"1",0.3348463
"450","1",30,120,105,1,187.96,111.13,47,17,28,36,"13899","2","1","1",6,"0","483",373,6,"1",0.2833209
"451","1",30,120,105,1,187.96,111.13,47,17,28,36,"9699","2","1","1",5,"180","484",676,5,"1",0.3666532
"452","1",30,120,105,1,187.96,111.13,47,17,28,36,"3699","2","2","1",5,"180","485",536,5,"1",0.3674546
"453","1",30,120,105,1,187.96,111.13,47,17,28,36,"11199","2","1","2",6,"0","486",295,6,"1",0.3837836
"454","1",30,120,105,1,187.96,111.13,47,17,28,36,"8699","2","2","1",5,"180","487",656,5,"1",0.3166601
"455","1",30,120,105,1,187.96,111.13,47,17,28,36,"10999","2","1","2",6,"0","488",715,6,"1",0.3833495
"456","1",30,120,105,1,187.96,111.13,47,17,28,36,"12099","2","3","1",5,"180","489",312,5,"1",0.4000451
"457","1",30,120,105,1,187.96,111.13,47,17,28,36,"999","2","1","1",6,"0","490",25,6,"1",0.3668031
"458","1",30,120,105,1,187.96,111.13,47,17,28,36,"599","2","3","2",6,"0","492",15,6,"1",0.3167126
"459","1",30,120,105,1,187.96,111.13,47,17,28,36,"10699","2","3","2",5,"180","493",702,5,"1",0.4500229
"460","1",30,120,105,1,187.96,111.13,47,17,28,36,"12355","1","2","1",5,"180","494",752,5,"1",0.5167904
"461","1",30,120,105,1,187.96,111.13,47,17,28,36,"10855","1","1","2",6,"0","495",283,6,"1",0.3000587
"462","1",30,120,105,1,187.96,111.13,47,17,28,36,"12555","1","3","2",5,"180","496",330,5,"1",0.4001175
"463","1",30,120,105,1,187.96,111.13,47,17,28,36,"5599","2","3","1",6,"0","497",573,6,"1",0.284964
"464","1",30,120,105,1,187.96,111.13,47,17,28,36,"4099","2","2","1",6,"0","498",545,6,"1",0.3833794
"465","1",30,120,105,1,187.96,111.13,47,17,28,36,"5699","2","2","1",5,"180","499",152,5,"1",0.4166858
"466","1",30,120,105,1,187.96,111.13,47,17,28,36,"9399","2","3","1",5,"180","500",240,5,"1",0.3667698
"467","1",30,120,105,1,187.96,111.13,47,17,28,36,"7799","2","2","2",5,"180","501",638,5,"1",0.4667609
"468","1",30,120,105,1,187.96,111.13,47,17,28,36,"4155","1","2","2",5,"180","502",122,5,"1",0.4000489
"469","1",30,120,105,1,187.96,111.13,47,17,28,36,"6855","1","3","2",5,"180","503",606,5,"1",0.3500542
"470","1",30,120,105,1,187.96,111.13,47,17,28,36,"4299","2","1","2",6,"0","504",127,6,"1",0.3500439
"471","1",30,120,105,1,187.96,111.13,47,17,28,36,"6355","1","1","2",6,"0","505",595,6,"1",0.3000259
"472","1",30,120,105,1,187.96,111.13,47,17,28,36,"9899","2","1","2",6,"0","506",679,6,"1",0.2999976
"473","1",30,120,105,1,187.96,111.13,47,17,28,36,"3155","1","3","1",5,"180","507",516,5,"1",0.3501009
"474","1",30,120,105,1,187.96,111.13,47,17,28,36,"6199","2","2","2",5,"180","508",590,5,"1",0.333649
"475","1",30,120,105,1,187.96,111.13,47,17,28,36,"499","2","1","1",6,"0","509",13,6,"1",0.4333744
"476","1",30,120,105,1,187.96,111.13,47,17,28,36,"9199","2","1","2",6,"0","510",235,6,"1",0.3167713
"477","1",30,120,105,1,187.96,111.13,47,17,28,36,"7799","2","3","2",5,"180","511",210,5,"1",0.5166855
"478","1",30,120,105,1,187.96,111.13,47,17,28,36,"8799","2","2","1",6,"0","512",233,6,"1",0.4000395
"479","1",30,120,105,1,187.96,111.13,47,17,28,36,"8199","2","2","2",6,"0","513",647,6,"1",0.3849256
"480","1",30,120,105,1,187.96,111.13,47,17,28,36,"899","2","2","1",6,"0","514",449,6,"1",0.5166347
"481","1",30,120,105,1,187.96,111.13,47,17,28,36,"15799","2","1","2",6,"0","515",835,6,"1",0.3505622
"482","1",30,120,105,1,187.96,111.13,47,17,28,36,"9399","2","1","1",6,"0","516",241,6,"1",0.3334951
"483","1",30,120,105,1,187.96,111.13,47,17,28,36,"2799","2","2","1",6,"0","517",77,6,"1",0.5667781
"484","1",30,120,105,1,187.96,111.13,47,17,28,36,"1855","1","1","1",5,"180","518",472,5,"1",0.2666934
"485","1",30,120,105,1,187.96,111.13,47,17,28,36,"7099","2","1","1",6,"0","519",193,6,"1",0.3333669
"486","1",30,120,105,1,187.96,111.13,47,17,28,36,"10455","1","2","1",6,"0","520",269,6,"1",0.4000598
"487","1",30,120,105,1,187.96,111.13,47,17,28,36,"6855","1","3","1",5,"180","521",180,5,"1",0.4166217
"488","1",30,120,105,1,187.96,111.13,47,17,28,36,"8099","2","2","1",5,"180","522",644,5,"1",0.4500203
"489","1",30,120,105,1,187.96,111.13,47,17,28,36,"5599","2","1","1",5,"180","525",148,5,"1",0.5333681
"490","1",30,120,105,1,187.96,111.13,47,17,28,36,"12199","2","1","1",6,"0","526",745,6,"1",0.5501196
"491","1",30,120,105,1,187.96,111.13,47,17,28,36,"1199","2","1","1",6,"0","527",457,6,"1",0.383436
"492","1",30,120,105,1,187.96,111.13,47,17,28,36,"2799","2","1","2",5,"180","528",502,5,"1",0.416776
"493","1",30,120,105,1,187.96,111.13,47,17,28,36,"13055","1","3","1",5,"180","529",348,5,"1",0.4167026
"494","1",30,120,105,1,187.96,111.13,47,17,28,36,"4799","2","2","1",6,"0","530",137,6,"1",0.3177783
"495","1",30,120,105,1,187.96,111.13,47,17,28,36,"6099","2","1","2",5,"180","531",586,5,"1",0.4166409
"496","1",30,120,105,1,187.96,111.13,47,17,28,36,"12155","1","3","1",6,"0","532",741,6,"1",0.3833793
"497","1",30,120,105,1,187.96,111.13,47,17,28,36,"6299","2","2","1",6,"0","533",593,6,"1",0.4668005
"498","1",30,120,105,1,187.96,111.13,47,17,28,36,"1255","1","2","1",6,"0","534",461,6,"1",0.3334033
"499","1",30,120,105,1,187.96,111.13,47,17,28,36,"2899","2","3","2",5,"180","535",78,5,"1",0.4334669
"500","1",30,120,105,1,187.96,111.13,47,17,28,36,"6955","1","1","2",6,"0","536",187,6,"1",0.3833761
"501","1",30,120,105,1,187.96,111.13,47,17,28,36,"2399","2","2","1",6,"0","537",65,6,"1",0.5000416
"502","1",30,120,105,1,187.96,111.13,47,17,28,36,"14055","1","1","2",5,"180","538",802,5,"1",0.4008713
"503","1",30,120,105,1,187.96,111.13,47,17,28,36,"12799","2","2","1",6,"0","539",341,6,"1",0.4000251
"504","1",30,120,105,1,187.96,111.13,47,17,28,36,"6899","2","1","2",5,"180","540",610,5,"1",0.3666345
"505","1",30,120,105,1,187.96,111.13,47,17,28,36,"14199","2","1","1",5,"180","542",808,5,"1",0.4166517
"506","1",30,120,105,1,187.96,111.13,47,17,28,36,"6999","2","1","1",5,"180","543",616,5,"1",0.4001448
"507","1",30,120,105,1,187.96,111.13,47,17,28,36,"10199","2","1","2",5,"180","544",262,5,"1",0.4167076
"508","1",30,120,105,1,187.96,111.13,47,17,28,36,"8699","2","3","1",5,"180","545",228,5,"1",0.4167786
"509","1",30,120,105,1,187.96,111.13,47,17,28,36,"9599","2","2","1",5,"180","546",248,5,"1",0.366767
"510","1",30,120,105,1,187.96,111.13,47,17,28,36,"3199","2","1","1",5,"180","547",520,5,"1",0.4000502
"511","1",30,120,105,1,187.96,111.13,47,17,28,36,"8099","2","1","1",6,"0","548",217,6,"1",0.3667305
"512","1",30,120,105,1,187.96,111.13,47,17,28,36,"17355","1","2","1",6,"0","549",425,6,"1",0.4500638
"513","1",30,120,105,1,187.96,111.13,47,17,28,36,"4099","2","1","2",5,"180","550",118,5,"1",0.4001253
"514","1",30,120,105,1,187.96,111.13,47,17,28,36,"7799","2","1","2",6,"0","551",211,6,"1",0.5666541
"515","1",30,120,105,1,187.96,111.13,47,17,28,36,"14199","2","1","2",5,"180","552",382,5,"1",0.3834778
"516","1",30,120,105,1,187.96,111.13,47,17,28,36,"4199","2","3","1",6,"0","553",549,6,"1",0.517914
"517","1",30,120,105,1,187.96,111.13,47,17,28,36,"4155","1","1","2",6,"0","554",547,6,"1",0.4841576
"518","1",30,120,105,1,187.96,111.13,47,17,28,36,"4599","2","3","2",5,"180","555",558,5,"1",0.4167597
"519","1",30,120,105,1,187.96,111.13,47,17,28,36,"8399","2","3","2",5,"180","556",222,5,"1",0.5012293
"520","1",30,120,105,1,187.96,111.13,47,17,28,36,"7999","2","3","1",6,"0","557",213,6,"1",0.3500272
"521","1",30,120,105,1,187.96,111.13,47,17,28,36,"2155","1","3","1",5,"180","558",480,5,"1",0.4499854
"522","1",30,120,105,1,187.96,111.13,47,17,28,36,"14155","1","1","2",6,"0","559",379,6,"1",0.3333397
"523","1",30,120,105,1,187.96,111.13,47,17,28,36,"1255","1","3","2",6,"0","560",459,6,"1",0.2999711
"524","1",30,120,105,1,187.96,111.13,47,17,28,36,"2255","1","2","2",6,"0","561",59,6,"1",0.3167958
"525","1",30,120,105,1,187.96,111.13,47,17,28,36,"6899","2","2","1",6,"0","562",185,6,"1",0.4168052
"526","1",30,120,105,1,187.96,111.13,47,17,28,36,"9899","2","1","1",6,"0","563",253,6,"1",0.3167907
"527","1",30,120,105,1,187.96,111.13,47,17,28,36,"3155","1","1","1",6,"0","564",517,6,"1",0.2668044
"528","1",30,120,105,1,187.96,111.13,47,17,28,36,"1399","2","1","2",6,"0","565",463,6,"1",0.2852331
"529","1",30,120,105,1,187.96,111.13,47,17,28,36,"3155","1","2","1",5,"180","566",92,5,"1",0.3501348
"530","1",30,120,105,1,187.96,111.13,47,17,28,36,"3299","2","1","2",6,"0","567",523,6,"1",0.3005748
"531","1",30,120,105,1,187.96,111.13,47,17,28,36,"15299","2","2","1",5,"180","568",404,5,"1",0.3667951
"532","1",30,120,105,1,187.96,111.13,47,17,28,36,"4799","2","2","2",6,"0","569",563,6,"1",0.3500276
"533","1",30,120,105,1,187.96,111.13,47,17,28,36,"14199","2","2","2",6,"0","570",383,6,"1",0.3514323
"534","1",30,120,105,1,187.96,111.13,47,17,28,36,"4199","2","2","1",6,"0","571",125,6,"1",0.4834193
"535","1",30,120,105,1,187.96,111.13,47,17,28,36,"6999","2","3","1",6,"0","572",189,6,"1",0.3334072
"536","1",30,120,105,1,187.96,111.13,47,17,28,36,"3899","2","1","1",6,"0","573",541,6,"1",0.3181331
"537","1",30,120,105,1,187.96,111.13,47,17,28,36,"14499","2","1","1",5,"180","574",820,5,"1",0.4166828
"538","1",30,120,105,1,187.96,111.13,47,17,28,36,"15799","2","3","1",5,"180","575",408,5,"1",0.4334165
"539","1",30,120,105,1,187.96,111.13,47,17,28,36,"11399","2","2","2",6,"0","576",299,6,"1",0.2836368
"540","1",30,120,105,1,187.96,111.13,47,17,28,36,"5799","2","1","1",5,"180","577",580,5,"1",0.3667199
"541","1",30,120,105,1,187.96,111.13,47,17,28,36,"6599","2","2","1",5,"180","578",176,5,"1",0.4334667
"542","1",30,120,105,1,187.96,111.13,47,17,28,36,"1799","2","2","1",5,"180","579",44,5,"1",0.4335046
"543","1",30,120,105,1,187.96,111.13,47,17,28,36,"6355","1","3","2",5,"180","580",594,5,"1",0.4500835
"544","1",30,120,105,1,187.96,111.13,47,17,28,36,"6299","2","3","2",6,"0","581",591,6,"1",0.3834549
"545","1",30,120,105,1,187.96,111.13,47,17,28,36,"455","1","1","1",5,"180","582",436,5,"1",0.5000051
"546","1",30,120,105,1,187.96,111.13,47,17,28,36,"11755","1","2","1",5,"180","583",308,5,"1",0.4334558
"547","1",30,120,105,1,187.96,111.13,47,17,28,36,"11755","1","3","2",5,"180","584",306,5,"1",0.4166696
"548","1",30,120,105,1,187.96,111.13,47,17,28,36,"4599","2","2","1",5,"180","585",560,5,"1",0.3666975
"549","1",30,120,105,1,187.96,111.13,47,17,28,36,"5899","2","2","1",5,"180","586",584,5,"1",0.4685761
"550","1",30,120,105,1,187.96,111.13,47,17,28,36,"11399","2","1","1",5,"180","587",724,5,"1",0.3501143
"551","1",30,120,105,1,187.96,111.13,47,17,28,36,"15299","2","3","2",5,"180","588",402,5,"1",0.4500069
"552","1",30,120,105,1,187.96,111.13,47,17,28,36,"13855","1","3","1",6,"0","589",369,6,"1",0.4018897
"553","1",30,120,105,1,187.96,111.13,47,17,28,36,"2399","2","1","2",5,"180","590",490,5,"1",0.3666525
"554","1",30,120,105,1,187.96,111.13,47,17,28,36,"2155","1","1","1",6,"0","591",481,6,"1",0.4343685
"555","1",30,120,105,1,187.96,111.13,47,17,28,36,"12499","2","1","1",5,"180","592",328,5,"1",0.450051
"556","1",30,120,105,1,187.96,111.13,47,17,28,36,"12999","2","1","2",5,"180","593",346,5,"1",0.4500456
"557","1",30,120,105,1,187.96,111.13,47,17,28,36,"16199","2","1","1",6,"0","594",841,6,"1",0.4833327
"558","1",30,120,105,1,187.96,111.13,47,17,28,36,"5899","2","3","1",5,"180","595",156,5,"1",0.3833982
"559","1",30,120,105,1,187.96,111.13,47,17,28,36,"13155","1","1","1",5,"180","596",352,5,"1",0.4000906
"560","1",30,120,105,1,187.96,111.13,47,17,28,36,"6999","2","1","2",5,"180","597",190,5,"1",0.483416
"561","1",30,120,105,1,187.96,111.13,47,17,28,36,"5599","2","2","2",6,"0","598",575,6,"1",0.3501405
"562","1",30,120,105,1,187.96,111.13,47,17,28,36,"12155","1","1","1",5,"180","599",316,5,"1",0.4341451
"563","1",30,120,105,1,187.96,111.13,47,17,28,36,"1099","2","2","1",6,"0","600",29,6,"1",0.5336501
"564","1",30,120,105,1,187.96,111.13,47,17,28,36,"12999","2","1","1",5,"180","601",772,5,"1",0.3666937
"565","1",30,120,105,1,187.96,111.13,47,17,28,36,"2999","2","3","1",5,"180","602",84,5,"1",0.3833459
"566","1",30,120,105,1,187.96,111.13,47,17,28,36,"3099","2","3","1",6,"0","603",513,6,"1",0.4001205
"567","1",30,120,105,1,187.96,111.13,47,17,28,36,"4399","2","2","1",6,"0","604",557,6,"1",0.3687388
"568","1",30,120,105,1,187.96,111.13,47,17,28,36,"6099","2","2","2",6,"0","606",587,6,"1",0.2833811
"569","1",30,120,105,1,187.96,111.13,47,17,28,36,"15399","2","3","1",6,"0","607",405,6,"1",0.3166956
"570","1",30,120,105,1,187.96,111.13,47,17,28,36,"6955","1","3","2",5,"180","608",186,5,"1",0.6833655
"571","1",30,120,105,1,187.96,111.13,47,17,28,36,"9199","2","3","1",5,"180","609",660,5,"1",0.4666185
"572","1",30,120,105,1,187.96,111.13,47,17,28,36,"9255","1","1","1",5,"180","610",664,5,"1",0.4666705
"573","1",30,120,105,1,187.96,111.13,47,17,28,36,"5299","2","1","1",6,"0","611",145,6,"1",0.3167292
"574","1",30,120,105,1,187.96,111.13,47,17,28,36,"16199","2","1","2",6,"0","612",415,6,"1",0.3168017
"575","1",30,120,105,1,187.96,111.13,47,17,28,36,"5899","2","2","2",5,"180","613",158,5,"1",0.4167929
"576","1",30,120,105,1,187.96,111.13,47,17,28,36,"1855","1","3","1",6,"0","615",45,6,"1",0.5001303
"577","1",30,120,105,1,187.96,111.13,47,17,28,36,"3099","2","3","2",6,"0","616",87,6,"1",0.4167573
"578","1",30,120,105,1,187.96,111.13,47,17,28,36,"9499","2","2","2",6,"0","617",671,6,"1",0.316723
"579","1",30,120,105,1,187.96,111.13,47,17,28,36,"8399","2","2","2",5,"180","618",650,5,"1",0.3834761
"580","1",30,120,105,1,187.96,111.13,47,17,28,36,"12999","2","3","1",6,"0","619",345,6,"1",0.4000261
"581","1",30,120,105,1,187.96,111.13,47,17,28,36,"10199","2","1","1",5,"180","620",688,5,"1",0.416775
"582","1",30,120,105,1,187.96,111.13,47,17,28,36,"13899","2","3","1",5,"180","621",372,5,"1",0.3833987
"583","1",30,120,105,1,187.96,111.13,47,17,28,36,"1699","2","1","2",5,"180","622",466,5,"1",0.4012279
"584","1",30,120,105,1,187.96,111.13,47,17,28,36,"8699","2","1","2",6,"0","623",655,6,"1",0.3174431
"585","1",30,120,105,1,187.96,111.13,47,17,28,36,"12299","2","2","1",6,"0","624",749,6,"1",0.4500328
"586","1",30,120,105,1,187.96,111.13,47,17,28,36,"2699","2","2","2",5,"180","625",74,5,"1",0.3500204
"587","1",30,120,105,1,187.96,111.13,47,17,28,36,"7199","2","2","2",6,"0","626",623,6,"1",0.3000089
"588","1",30,120,105,1,187.96,111.13,47,17,28,36,"2399","2","2","2",6,"0","627",491,6,"1",0.3333828
"589","1",30,120,105,1,187.96,111.13,47,17,28,36,"10799","2","2","2",6,"0","628",707,6,"1",0.3001512
"590","1",30,120,105,1,187.96,111.13,47,17,28,36,"14699","2","2","1",5,"180","629",824,5,"1",0.4344349
"591","1",30,120,105,1,187.96,111.13,47,17,28,36,"7199","2","1","2",5,"180","630",622,5,"1",0.4339752
"592","1",30,120,105,1,187.96,111.13,47,17,28,36,"7999","2","2","1",6,"0","631",641,6,"1",0.3333738
"593","1",30,120,105,1,187.96,111.13,47,17,28,36,"11399","2","3","2",6,"0","632",723,6,"1",0.3167741
"594","1",30,120,105,1,187.96,111.13,47,17,28,36,"12799","2","3","1",6,"0","633",765,6,"1",0.3501169
"595","1",30,120,105,1,187.96,111.13,47,17,28,36,"899","2","1","1",5,"180","634",448,5,"1",0.3332833
"596","1",30,120,105,1,187.96,111.13,47,17,28,36,"12099","2","2","2",5,"180","635",314,5,"1",0.4167833
"597","1",30,120,105,1,187.96,111.13,47,17,28,36,"7799","2","2","1",5,"180","636",212,5,"1",0.3834629
"598","1",30,120,105,1,187.96,111.13,47,17,28,36,"12599","2","1","2",5,"180","637",334,5,"1",0.4000241
"599","1",30,120,105,1,187.96,111.13,47,17,28,36,"13155","1","3","2",6,"0","638",351,6,"1",0.3333897
"600","1",30,120,105,1,187.96,111.13,47,17,28,36,"10799","2","3","2",6,"0","639",279,6,"1",0.433372
"601","1",30,120,105,1,187.96,111.13,47,17,28,36,"13199","2","1","1",6,"0","640",781,6,"1",0.5499734
"602","1",30,120,105,1,187.96,111.13,47,17,28,36,"6099","2","3","1",6,"0","641",585,6,"1",0.4666977
"603","1",30,120,105,1,187.96,111.13,47,17,28,36,"6699","2","2","2",6,"0","642",179,6,"1",0.366719
"604","1",30,120,105,1,187.96,111.13,47,17,28,36,"13155","1","3","1",6,"0","643",777,6,"1",0.4333554
"605","1",30,120,105,1,187.96,111.13,47,17,28,36,"2299","2","1","2",6,"0","644",487,6,"1",0.2834832
"606","1",30,120,105,1,187.96,111.13,47,17,28,36,"7399","2","3","2",6,"0","645",627,6,"1",0.3667985
"607","1",30,120,105,1,187.96,111.13,47,17,28,36,"2599","2","2","2",5,"180","646",494,5,"1",0.3672852
"608","1",30,120,105,1,187.96,111.13,47,17,28,36,"11199","2","1","1",6,"0","647",721,6,"1",0.3836205
"609","1",30,120,105,1,187.96,111.13,47,17,28,36,"16299","2","2","2",6,"0","648",419,6,"1",0.2667944
"610","1",30,120,105,1,187.96,111.13,47,17,28,36,"3399","2","1","2",6,"0","649",103,6,"1",0.2500521
"611","1",30,120,105,1,187.96,111.13,47,17,28,36,"3399","2","3","1",5,"180","650",528,5,"1",0.333435
"612","1",30,120,105,1,187.96,111.13,47,17,28,36,"4299","2","3","2",5,"180","651",126,5,"1",0.4834417
"613","1",30,120,105,1,187.96,111.13,47,17,28,36,"6355","1","1","1",6,"0","652",169,6,"1",0.4334382
"614","1",30,120,105,1,187.96,111.13,47,17,28,36,"3299","2","1","1",6,"0","653",97,6,"1",0.3167893
"615","1",30,120,105,1,187.96,111.13,47,17,28,36,"4599","2","3","1",5,"180","654",132,5,"1",0.3834662
"616","1",30,120,105,1,187.96,111.13,47,17,28,36,"9499","2","3","1",6,"0","655",669,6,"1",0.3999874
"617","1",30,120,105,1,187.96,111.13,47,17,28,36,"14299","2","2","1",5,"180","656",812,5,"1",0.5667728
"618","1",30,120,105,1,187.96,111.13,47,17,28,36,"14155","1","2","2",5,"180","657",806,5,"1",0.4333592
"619","1",30,120,105,1,187.96,111.13,47,17,28,36,"3899","2","1","2",6,"0","658",115,6,"1",0.3500301
"620","1",30,120,105,1,187.96,111.13,47,17,28,36,"455","1","1","2",5,"180","659",10,5,"1",0.4834264
"621","1",30,120,105,1,187.96,111.13,47,17,28,36,"2599","2","3","1",5,"180","660",492,5,"1",0.4014536
"622","1",30,120,105,1,187.96,111.13,47,17,28,36,"10799","2","1","2",5,"180","661",706,5,"1",0.4500336
"623","1",30,120,105,1,187.96,111.13,47,17,28,36,"10555","1","3","2",5,"180","662",270,5,"1",0.4834712
"624","1",30,120,105,1,187.96,111.13,47,17,28,36,"4999","2","3","2",6,"0","663",567,6,"1",0.383396
"625","1",30,120,105,1,187.96,111.13,47,17,28,36,"8799","2","1","2",5,"180","664",658,5,"1",0.4333547
"626","1",30,120,105,1,187.96,111.13,47,17,28,36,"13299","2","2","1",5,"180","665",788,5,"1",0.4501318
"627","1",30,120,105,1,187.96,111.13,47,17,28,36,"9899","2","2","2",5,"180","666",254,5,"1",0.4501278
"628","1",30,120,105,1,187.96,111.13,47,17,28,36,"14355","1","2","2",6,"0","668",815,6,"1",0.3166989
"629","1",30,120,105,1,187.96,111.13,47,17,28,36,"3899","2","3","2",5,"180","669",114,5,"1",0.3666816
"630","1",30,120,105,1,187.96,111.13,47,17,28,36,"3199","2","3","2",6,"0","670",519,6,"1",0.4166004
"631","1",30,120,105,1,187.96,111.13,47,17,28,36,"15799","2","1","1",6,"0","671",409,6,"1",0.450046
"632","1",30,120,105,1,187.96,111.13,47,17,28,36,"399","2","2","2",5,"180","672",434,5,"1",0.4666409
"633","1",30,120,105,1,187.96,111.13,47,17,28,36,"2099","2","1","1",5,"180","673",52,5,"1",0.4014724
"634","1",30,120,105,1,187.96,111.13,47,17,28,36,"16299","2","3","2",6,"0","674",843,6,"1",0.3666771
"635","1",30,120,105,1,187.96,111.13,47,17,28,36,"6199","2","1","1",6,"0","675",589,6,"1",0.4167307
"636","1",30,120,105,1,187.96,111.13,47,17,28,36,"12799","2","3","2",6,"0","676",339,6,"1",0.3667849
"637","1",30,120,105,1,187.96,111.13,47,17,28,36,"13199","2","3","1",5,"180","677",780,5,"1",0.4834101
"638","1",30,120,105,1,187.96,111.13,47,17,28,36,"8399","2","3","1",5,"180","678",648,5,"1",0.4501442
"639","1",30,120,105,1,187.96,111.13,47,17,28,36,"299","2","2","1",6,"0","679",5,6,"1",0.3834568
"640","1",30,120,105,1,187.96,111.13,47,17,28,36,"11799","2","1","1",5,"180","680",736,5,"1",0.4666917
"641","1",30,120,105,1,187.96,111.13,47,17,28,36,"9399","2","1","2",6,"0","681",667,6,"1",0.333416
"642","1",30,120,105,1,187.96,111.13,47,17,28,36,"7299","2","2","1",5,"180","682",200,5,"1",0.3500131
"643","1",30,120,105,1,187.96,111.13,47,17,28,36,"2255","1","3","2",6,"0","683",483,6,"1",0.3500284
"644","1",30,120,105,1,187.96,111.13,47,17,28,36,"13299","2","1","2",6,"0","684",787,6,"1",0.3500394
"645","1",30,120,105,1,187.96,111.13,47,17,28,36,"15899","2","1","2",5,"180","685",838,5,"1",0.4000483
"646","1",30,120,105,1,187.96,111.13,47,17,28,36,"6899","2","3","1",6,"0","686",609,6,"1",0.3836952
"647","1",30,120,105,1,187.96,111.13,47,17,28,36,"10599","2","2","1",6,"0","687",701,6,"1",0.3334196
"648","1",30,120,105,1,187.96,111.13,47,17,28,36,"13499","2","3","2",6,"0","688",363,6,"1",0.3000072
"649","1",30,120,105,1,187.96,111.13,47,17,28,36,"9699","2","2","1",6,"0","689",677,6,"1",0.4512826
"650","1",30,120,105,1,187.96,111.13,47,17,28,36,"399","2","3","2",5,"180","690",6,5,"1",0.416749
"651","1",30,120,105,1,187.96,111.13,47,17,28,36,"10855","1","3","1",5,"180","691",708,5,"1",0.3666817
"652","1",30,120,105,1,187.96,111.13,47,17,28,36,"2299","2","3","2",5,"180","692",486,5,"1",0.366701
"653","1",30,120,105,1,187.96,111.13,47,17,28,36,"5699","2","3","1",5,"180","694",576,5,"1",0.3666746
"654","1",30,120,105,1,187.96,111.13,47,17,28,36,"15399","2","1","1",5,"180","695",832,5,"1",0.400131
"655","1",30,120,105,1,187.96,111.13,47,17,28,36,"12499","2","2","1",6,"0","696",329,6,"1",0.3500333
"656","1",30,120,105,1,187.96,111.13,47,17,28,36,"15099","2","2","2",6,"0","697",827,6,"1",0.3667776
"657","1",30,120,105,1,187.96,111.13,47,17,28,36,"10099","2","2","1",6,"0","698",257,6,"1",0.3667964
"658","1",30,120,105,1,187.96,111.13,47,17,28,36,"15799","2","2","1",5,"180","699",836,5,"1",0.3167998
"659","1",30,120,105,1,187.96,111.13,47,17,28,36,"14155","1","3","2",5,"180","700",378,5,"1",0.3833631
"660","1",30,120,105,1,187.96,111.13,47,17,28,36,"3099","2","1","2",5,"180","701",514,5,"1",0.2833869
"661","1",30,120,105,1,187.96,111.13,47,17,28,36,"199","2","3","2",5,"180","702",426,5,"1",0.2509466
"662","1",30,120,105,1,187.96,111.13,47,17,28,36,"15299","2","3","1",5,"180","703",828,5,"1",0.2834575
"663","1",30,120,105,1,187.96,111.13,47,17,28,36,"13299","2","3","2",5,"180","704",786,5,"1",0.2834752
"664","1",30,120,105,1,187.96,111.13,47,17,28,36,"11699","2","2","1",6,"0","705",305,6,"1",0.350131
"665","1",30,120,105,1,187.96,111.13,47,17,28,36,"12855","1","3","1",5,"180","706",768,5,"1",0.300028
"666","1",30,120,105,1,187.96,111.13,47,17,28,36,"5699","2","1","2",6,"0","707",151,6,"1",0.2667791
"667","1",30,120,105,1,187.96,111.13,47,17,28,36,"2999","2","2","1",5,"180","708",512,5,"1",0.3166568
"668","1",30,120,105,1,187.96,111.13,47,17,28,36,"9499","2","3","2",6,"0","709",243,6,"1",0.2834637
"669","1",30,120,105,1,187.96,111.13,47,17,28,36,"2599","2","3","2",5,"180","710",66,5,"1",0.3333713
"670","1",30,120,105,1,187.96,111.13,47,17,28,36,"11799","2","2","2",6,"0","711",311,6,"1",0.3501294
"671","1",30,120,105,1,187.96,111.13,47,17,28,36,"9899","2","3","1",5,"180","712",252,5,"1",0.2833629
"672","1",30,120,105,1,187.96,111.13,47,17,28,36,"13255","1","3","1",6,"0","713",357,6,"1",0.3000481
"673","1",30,120,105,1,187.96,111.13,47,17,28,36,"799","2","1","1",6,"0","714",445,6,"1",0.3001328
"674","1",30,120,105,1,187.96,111.13,47,17,28,36,"9499","2","1","1",5,"180","715",244,5,"1",0.3167171
"675","1",30,120,105,1,187.96,111.13,47,17,28,36,"7199","2","1","1",5,"180","716",196,5,"1",0.3333966
"676","1",30,120,105,1,187.96,111.13,47,17,28,36,"799","2","1","2",6,"0","717",19,6,"1",0.3000237
"677","1",30,120,105,1,187.96,111.13,47,17,28,36,"6855","1","2","1",5,"180","718",608,5,"1",0.3000213
"678","1",30,120,105,1,187.96,111.13,47,17,28,36,"10899","2","1","1",5,"180","719",712,5,"1",0.2666963
"679","1",30,120,105,1,187.96,111.13,47,17,28,36,"1899","2","3","1",5,"180","720",48,5,"1",0.3001077
"680","1",30,120,105,1,187.96,111.13,47,17,28,36,"7399","2","2","2",6,"0","721",203,6,"1",0.3170694
"681","1",30,120,105,1,187.96,111.13,47,17,28,36,"3199","2","2","2",6,"0","722",95,6,"1",0.3022542
"682","1",30,120,105,1,187.96,111.13,47,17,28,36,"5899","2","1","2",6,"0","723",583,6,"1",0.3000404
"683","1",30,120,105,1,187.96,111.13,47,17,28,36,"11399","2","2","1",6,"0","724",725,6,"1",0.3834193
"684","1",30,120,105,1,187.96,111.13,47,17,28,36,"4599","2","1","2",6,"0","725",559,6,"1",0.2833775
"685","1",30,120,105,1,187.96,111.13,47,17,28,36,"12999","2","2","1",6,"0","726",773,6,"1",0.3333631
"686","1",30,120,105,1,187.96,111.13,47,17,28,36,"13899","2","1","2",6,"0","727",799,6,"1",0.2666559
"687","1",30,120,105,1,187.96,111.13,47,17,28,36,"13499","2","2","2",6,"0","728",791,6,"1",0.2667626
"688","1",30,120,105,1,187.96,111.13,47,17,28,36,"1199","2","3","2",5,"180","729",30,5,"1",0.5500138
"689","1",30,120,105,1,187.96,111.13,47,17,28,36,"11799","2","2","1",6,"0","730",737,6,"1",0.4667035
"690","1",30,120,105,1,187.96,111.13,47,17,28,36,"6855","1","1","1",6,"0","731",181,6,"1",0.3334263
"691","1",30,120,105,1,187.96,111.13,47,17,28,36,"4399","2","1","2",5,"180","732",130,5,"1",0.5667917
"692","1",30,120,105,1,187.96,111.13,47,17,28,36,"13155","1","2","2",6,"0","733",779,6,"1",0.3501035
"693","1",30,120,105,1,187.96,111.13,47,17,28,36,"13155","1","1","2",5,"180","735",778,5,"1",0.4166507
"694","1",30,120,105,1,187.96,111.13,47,17,28,36,"10899","2","2","1",6,"0","736",713,6,"1",0.4000123
"695","1",30,120,105,1,187.96,111.13,47,17,28,36,"2155","1","2","1",5,"180","737",56,5,"1",0.3334096
"696","1",30,120,105,1,187.96,111.13,47,17,28,36,"10555","1","1","2",6,"0","738",271,6,"1",0.3334191
"697","1",30,120,105,1,187.96,111.13,47,17,28,36,"2399","2","1","1",5,"180","740",64,5,"1",0.3666302
"698","1",30,120,105,1,187.96,111.13,47,17,28,36,"10599","2","3","1",6,"0","741",273,6,"1",0.3667874
"699","1",30,120,105,1,187.96,111.13,47,17,28,36,"8199","2","3","1",6,"0","742",645,6,"1",0.3667334
"700","1",30,120,105,1,187.96,111.13,47,17,28,36,"1799","2","1","1",6,"0","743",469,6,"1",0.3167346
"701","1",30,120,105,1,187.96,111.13,47,17,28,36,"3599","2","2","2",6,"0","744",107,6,"1",0.3846902
"702","1",30,120,105,1,187.96,111.13,47,17,28,36,"4599","2","1","1",6,"0","745",133,6,"1",0.4001324
"703","1",30,120,105,1,187.96,111.13,47,17,28,36,"13055","1","1","2",6,"0","746",775,6,"1",0.3006522
"704","1",30,120,105,1,187.96,111.13,47,17,28,36,"4799","2","3","1",6,"0","747",561,6,"1",0.3000096
"705","1",30,120,105,1,187.96,111.13,47,17,28,36,"1855","1","2","2",6,"0","748",47,6,"1",0.4167251
"706","1",30,120,105,1,187.96,111.13,47,17,28,36,"10155","1","3","1",5,"180","749",684,5,"1",0.3668056
"707","1",30,120,105,1,187.96,111.13,47,17,28,36,"3899","2","3","1",5,"180","750",540,5,"1",0.3168005
"708","1",30,120,105,1,187.96,111.13,47,17,28,36,"9255","1","3","1",6,"0","751",237,6,"1",0.3667731
"709","1",30,120,105,1,187.96,111.13,47,17,28,36,"11799","2","3","1",6,"0","752",309,6,"1",0.3334651
"710","1",30,120,105,1,187.96,111.13,47,17,28,36,"12855","1","3","2",5,"180","753",342,5,"1",0.3501373
"711","1",30,120,105,1,187.96,111.13,47,17,28,36,"12699","2","2","1",5,"180","754",764,5,"1",0.3332992
"712","1",30,120,105,1,187.96,111.13,47,17,28,36,"11099","2","2","1",6,"0","755",293,6,"1",0.3332969
"713","1",30,120,105,1,187.96,111.13,47,17,28,36,"3299","2","3","1",5,"180","756",96,5,"1",0.3683351
"714","1",30,120,105,1,187.96,111.13,47,17,28,36,"1699","2","2","1",6,"0","757",41,6,"1",0.2834054
"715","1",30,120,105,1,187.96,111.13,47,17,28,36,"12199","2","2","1",5,"180","758",320,5,"1",0.2833581
"716","1",30,120,105,1,187.96,111.13,47,17,28,36,"9899","2","2","1",5,"180","759",680,5,"1",0.3333815
"717","1",30,120,105,1,187.96,111.13,47,17,28,36,"7399","2","3","1",6,"0","761",201,6,"1",0.3334262
"718","1",30,120,105,1,187.96,111.13,47,17,28,36,"17255","1","1","2",6,"0","762",847,6,"1",0.3334464
"719","1",30,120,105,1,187.96,111.13,47,17,28,36,"14699","2","2","2",5,"180","763",398,5,"1",0.30053
"720","1",30,120,105,1,187.96,111.13,47,17,28,36,"3799","2","3","2",6,"0","764",111,6,"1",0.3350834
"721","1",30,120,105,1,187.96,111.13,47,17,28,36,"12699","2","1","1",6,"0","765",337,6,"1",0.5000982
"722","1",30,120,105,1,187.96,111.13,47,17,28,36,"11699","2","1","2",5,"180","766",730,5,"1",0.300108
"723","1",30,120,105,1,187.96,111.13,47,17,28,36,"14199","2","3","2",6,"0","767",807,6,"1",0.283374
"724","1",30,120,105,1,187.96,111.13,47,17,28,36,"9499","2","1","2",5,"180","768",670,5,"1",0.4017556
"725","1",30,120,105,1,187.96,111.13,47,17,28,36,"9255","1","2","2",6,"0","769",239,6,"1",0.2667833
"726","1",30,120,105,1,187.96,111.13,47,17,28,36,"12855","1","2","2",5,"180","770",770,5,"1",0.3334419
"727","1",30,120,105,1,187.96,111.13,47,17,28,36,"299","2","1","1",5,"180","771",4,5,"1",0.3668001
"728","1",30,120,105,1,187.96,111.13,47,17,28,36,"8499","2","3","1",6,"0","772",225,6,"1",0.3167188
"729","1",30,120,105,1,187.96,111.13,47,17,28,36,"299","2","3","2",6,"0","773",3,6,"1",0.2666439
"730","1",30,120,105,1,187.96,111.13,47,17,28,36,"2699","2","3","2",5,"180","774",498,5,"1",0.4000654
"731","1",30,120,105,1,187.96,111.13,47,17,28,36,"13055","1","2","1",5,"180","775",776,5,"1",0.31664
"732","1",30,120,105,1,187.96,111.13,47,17,28,36,"9599","2","2","2",5,"180","776",674,5,"1",0.5666343
"733","1",30,120,105,1,187.96,111.13,47,17,28,36,"9399","2","2","1",5,"180","778",668,5,"1",0.3166348
"734","1",30,120,105,1,187.96,111.13,47,17,28,36,"8799","2","2","2",6,"0","780",659,6,"1",0.350027
"735","1",30,120,105,1,187.96,111.13,47,17,28,36,"12199","2","1","2",6,"0","781",319,6,"1",0.3666934
"736","1",30,120,105,1,187.96,111.13,47,17,28,36,"13699","2","3","2",5,"180","782",366,5,"1",0.3500604
"737","1",30,120,105,1,187.96,111.13,47,17,28,36,"4799","2","1","1",5,"180","783",136,5,"1",0.4833628
"738","1",30,120,105,1,187.96,111.13,47,17,28,36,"12099","2","1","1",6,"0","784",313,6,"1",0.4666562
"739","1",30,120,105,1,187.96,111.13,47,17,28,36,"3599","2","1","1",5,"180","785",532,5,"1",0.3833738
"740","1",30,120,105,1,187.96,111.13,47,17,28,36,"6099","2","1","1",5,"180","786",160,5,"1",0.4500495
"741","1",30,120,105,1,187.96,111.13,47,17,28,36,"599","2","2","1",6,"0","787",17,6,"1",0.3833683
"742","1",30,120,105,1,187.96,111.13,47,17,28,36,"12599","2","2","1",6,"0","788",761,6,"1",0.3333603
"743","1",30,120,105,1,187.96,111.13,47,17,28,36,"10855","1","1","1",6,"0","789",709,6,"1",0.4668044
"744","1",30,120,105,1,187.96,111.13,47,17,28,36,"13499","2","1","1",5,"180","790",364,5,"1",0.3500382
"745","1",30,120,105,1,187.96,111.13,47,17,28,36,"6899","2","3","2",6,"0","791",183,6,"1",0.3000279
"746","1",30,120,105,1,187.96,111.13,47,17,28,36,"7099","2","3","1",5,"180","792",192,5,"1",0.3501341
"747","1",30,120,105,1,187.96,111.13,47,17,28,36,"1855","1","2","1",6,"0","793",473,6,"1",0.4666499
"748","1",30,120,105,1,187.96,111.13,47,17,28,36,"2655","1","2","1",6,"0","794",497,6,"1",0.3167491
"749","1",30,120,105,1,187.96,111.13,47,17,28,36,"2999","2","1","2",6,"0","795",511,6,"1",0.3000344
"750","1",30,120,105,1,187.96,111.13,47,17,28,36,"7199","2","2","1",6,"0","796",197,6,"1",0.3833691
"751","1",30,120,105,1,187.96,111.13,47,17,28,36,"14399","2","1","1",6,"0","797",817,6,"1",0.3167663
"752","1",30,120,105,1,187.96,111.13,47,17,28,36,"1099","2","1","2",5,"180","798",454,5,"1",0.3667618
"753","1",30,120,105,1,187.96,111.13,47,17,28,36,"10799","2","3","1",6,"0","799",705,6,"1",0.366785
"754","1",30,120,105,1,187.96,111.13,47,17,28,36,"1699","2","3","2",6,"0","800",39,6,"1",0.3166853
"755","1",30,120,105,1,187.96,111.13,47,17,28,36,"3099","2","2","2",6,"0","801",515,6,"1",0.2833551
"756","1",30,120,105,1,187.96,111.13,47,17,28,36,"899","2","2","2",6,"0","802",23,6,"1",0.283366
"757","1",30,120,105,1,187.96,111.13,47,17,28,36,"4399","2","2","2",6,"0","803",131,6,"1",0.2667688
"758","1",30,120,105,1,187.96,111.13,47,17,28,36,"199","2","1","1",6,"0","804",1,6,"1",0.3166818
"759","1",30,120,105,1,187.96,111.13,47,17,28,36,"9399","2","3","2",5,"180","805",666,5,"1",0.3500095
"760","1",30,120,105,1,187.96,111.13,47,17,28,36,"2999","2","2","2",5,"180","806",86,5,"1",0.3833945
"761","1",30,120,105,1,187.96,111.13,47,17,28,36,"12699","2","1","2",6,"0","807",763,6,"1",0.3167661
"762","1",30,120,105,1,187.96,111.13,47,17,28,36,"7999","2","1","1",5,"180","808",640,5,"1",0.566748
"763","1",30,120,105,1,187.96,111.13,47,17,28,36,"6599","2","1","2",6,"0","810",175,6,"1",0.2667937
"764","1",30,120,105,1,187.96,111.13,47,17,28,36,"10999","2","2","1",5,"180","811",716,5,"1",0.3168035
"765","1",30,120,105,1,187.96,111.13,47,17,28,36,"10899","2","1","2",5,"180","812",286,5,"1",0.4501363
"766","1",30,120,105,1,187.96,111.13,47,17,28,36,"13055","1","3","2",5,"180","813",774,5,"1",0.3499837
"767","1",30,120,105,1,187.96,111.13,47,17,28,36,"15299","2","1","1",6,"0","814",829,6,"1",0.3167498
"768","1",30,120,105,1,187.96,111.13,47,17,28,36,"7399","2","2","1",6,"0","815",629,6,"1",0.4334262
"769","1",30,120,105,1,187.96,111.13,47,17,28,36,"16299","2","1","1",5,"180","816",844,5,"1",0.3668381
"770","1",30,120,105,1,187.96,111.13,47,17,28,36,"8799","2","3","1",6,"0","817",657,6,"1",0.3667232
"771","1",30,120,105,1,187.96,111.13,47,17,28,36,"8099","2","3","1",5,"180","818",216,5,"1",0.3333832
"772","1",30,120,105,1,187.96,111.13,47,17,28,36,"399","2","1","1",6,"0","819",433,6,"1",0.3178709
"773","1",30,120,105,1,187.96,111.13,47,17,28,36,"899","2","1","2",5,"180","820",22,5,"1",0.4833826
"774","1",30,120,105,1,187.96,111.13,47,17,28,36,"2799","2","3","1",6,"0","821",501,6,"1",0.3333545
"775","1",30,120,105,1,187.96,111.13,47,17,28,36,"14399","2","2","1",5,"180","822",392,5,"1",0.3667054
"776","1",30,120,105,1,187.96,111.13,47,17,28,36,"12299","2","1","2",5,"180","823",322,5,"1",0.4334572
"777","1",30,120,105,1,187.96,111.13,47,17,28,36,"10799","2","1","1",5,"180","824",280,5,"1",0.3667532
"778","1",30,120,105,1,187.96,111.13,47,17,28,36,"15399","2","3","2",6,"0","825",831,6,"1",0.3667703
"779","1",30,120,105,1,187.96,111.13,47,17,28,36,"11599","2","3","2",5,"180","826",726,5,"1",0.3168017
"780","1",30,120,105,1,187.96,111.13,47,17,28,36,"12999","2","2","2",6,"0","827",347,6,"1",0.3000369
"781","1",30,120,105,1,187.96,111.13,47,17,28,36,"1255","1","1","1",5,"180","828",460,5,"1",0.3167134
"782","1",30,120,105,1,187.96,111.13,47,17,28,36,"12599","2","1","1",5,"180","829",760,5,"1",0.3334158
"783","1",30,120,105,1,187.96,111.13,47,17,28,36,"2699","2","1","1",6,"0","830",73,6,"1",0.3333797
"784","1",30,120,105,1,187.96,111.13,47,17,28,36,"1199","2","1","2",6,"0","831",31,6,"1",0.3501281
"785","1",30,120,105,1,187.96,111.13,47,17,28,36,"8499","2","2","1",6,"0","832",653,6,"1",0.3833434
"786","1",30,120,105,1,187.96,111.13,47,17,28,36,"9499","2","2","1",6,"0","833",245,6,"1",0.3168001
"787","1",30,120,105,1,187.96,111.13,47,17,28,36,"2655","1","3","1",6,"0","834",69,6,"1",0.3001359
"788","1",30,120,105,1,187.96,111.13,47,17,28,36,"3799","2","2","2",6,"0","835",539,6,"1",0.3834063
"789","1",30,120,105,1,187.96,111.13,47,17,28,36,"12099","2","1","2",6,"0","836",739,6,"1",0.4834345
"790","1",30,120,105,1,187.96,111.13,47,17,28,36,"4899","2","1","2",6,"0","837",139,6,"1",0.4000222
"791","1",30,120,105,1,187.96,111.13,47,17,28,36,"7599","2","3","1",5,"180","838",204,5,"1",0.4667746
"792","1",30,120,105,1,187.96,111.13,47,17,28,36,"15799","2","3","2",5,"180","839",834,5,"1",0.4000237
"793","1",30,120,105,1,187.96,111.13,47,17,28,36,"8699","2","1","1",6,"0","840",229,6,"1",0.3834639
"794","1",30,120,105,1,187.96,111.13,47,17,28,36,"11199","2","2","1",5,"180","841",296,5,"1",0.3334181
"795","1",30,120,105,1,187.96,111.13,47,17,28,36,"10155","1","1","1",6,"0","842",685,6,"1",0.3334233
"796","1",30,120,105,1,187.96,111.13,47,17,28,36,"14055","1","3","2",6,"0","843",375,6,"1",0.2833958
"797","1",30,120,105,1,187.96,111.13,47,17,28,36,"10599","2","1","2",5,"180","844",274,5,"1",0.3333934
"798","1",30,120,105,1,187.96,111.13,47,17,28,36,"17355","1","1","1",5,"180","845",424,5,"1",0.3009205
"799","1",30,120,105,1,187.96,111.13,47,17,28,36,"14299","2","2","2",5,"180","846",386,5,"1",0.3833431
"800","1",30,120,105,1,187.96,111.13,47,17,28,36,"3799","2","2","1",6,"0","847",113,6,"1",0.2833176
"801","1",30,120,105,1,187.96,111.13,47,17,28,36,"1899","2","2","1",5,"180","848",476,5,"1",0.3001351
"802","1",30,120,105,1,187.96,111.13,47,17,28,36,"12355","1","1","2",6,"0","849",751,6,"1",0.2666397
"803","1",30,120,105,1,187.96,111.13,47,17,28,36,"2099","2","3","2",6,"0","850",51,6,"1",0.2834618
"804","1",30,120,105,1,187.96,111.13,47,17,28,36,"10699","2","2","2",5,"180","851",278,5,"1",0.3500966
"805","2",30,50,42,1,157.48,40.82,32,11,43,55,"13155","1","3","1",6,"0","0",777,5,"1",0.8833637
"806","2",30,50,42,1,157.48,40.82,32,11,43,55,"2655","1","2","2",6,"0","1",71,5,"1",0.7507328
"807","2",30,50,42,1,157.48,40.82,32,11,43,55,"9899","2","1","2",6,"0","2",679,5,"1",0.4667746
"808","2",30,50,42,1,157.48,40.82,32,11,43,55,"3699","2","2","2",5,"180","3",110,6,"1",0.5167889
"809","2",30,50,42,1,157.48,40.82,32,11,43,55,"3099","2","2","1",6,"0","4",89,5,"1",0.8834276
"810","2",30,50,42,1,157.48,40.82,32,11,43,55,"1399","2","3","1",5,"180","5",36,6,"1",0.5500285
"811","2",30,50,42,1,157.48,40.82,32,11,43,55,"10699","2","3","2",5,"180","6",702,6,"1",0.4666964
"812","2",30,50,42,1,157.48,40.82,32,11,43,55,"14399","2","1","2",6,"0","7",391,5,"1",0.5500339
"813","2",30,50,42,1,157.48,40.82,32,11,43,55,"12599","2","3","2",6,"0","8",759,5,"1",0.5333947
"814","2",30,50,42,1,157.48,40.82,32,11,43,55,"299","2","2","2",6,"0","9",431,5,"1",0.4166312
"815","2",30,50,42,1,157.48,40.82,32,11,43,55,"8199","2","3","2",6,"0","10",219,5,"1",0.4333788
"816","2",30,50,42,1,157.48,40.82,32,11,43,55,"7299","2","1","1",6,"0","11",625,5,"1",0.56671
"817","2",30,50,42,1,157.48,40.82,32,11,43,55,"2955","1","2","2",6,"0","13",83,5,"1",0.4501388
"818","2",30,50,42,1,157.48,40.82,32,11,43,55,"4299","2","3","1",5,"180","14",552,6,"1",0.4167838
"819","2",30,50,42,1,157.48,40.82,32,11,43,55,"10699","2","2","1",5,"180","15",704,6,"1",0.5502659
"820","2",30,50,42,1,157.48,40.82,32,11,43,55,"1399","2","2","2",5,"180","16",38,6,"1",0.5666967
"821","2",30,50,42,1,157.48,40.82,32,11,43,55,"3399","2","3","2",5,"180","17",102,6,"1",0.366696
"822","2",30,50,42,1,157.48,40.82,32,11,43,55,"799","2","3","1",5,"180","18",444,6,"1",0.4000507
"823","2",30,50,42,1,157.48,40.82,32,11,43,55,"9499","2","1","1",5,"180","19",244,6,"1",0.3667567
"824","2",30,50,42,1,157.48,40.82,32,11,43,55,"15899","2","3","1",6,"0","20",837,5,"1",0.5501528
"825","2",30,50,42,1,157.48,40.82,32,11,43,55,"13199","2","3","2",5,"180","21",354,6,"1",0.5333077
"826","2",30,50,42,1,157.48,40.82,32,11,43,55,"16199","2","2","2",5,"180","22",842,6,"1",0.450041
"827","2",30,50,42,1,157.48,40.82,32,11,43,55,"7099","2","2","1",5,"180","23",620,6,"1",0.3667034
"828","2",30,50,42,1,157.48,40.82,32,11,43,55,"7799","2","1","1",6,"0","25",637,5,"1",0.7334325
"829","2",30,50,42,1,157.48,40.82,32,11,43,55,"10199","2","1","2",5,"180","26",262,6,"1",0.5500194
"830","2",30,50,42,1,157.48,40.82,32,11,43,55,"6099","2","2","1",6,"0","27",161,5,"1",0.8167418
"831","2",30,50,42,1,157.48,40.82,32,11,43,55,"4899","2","2","1",5,"180","28",140,6,"1",0.716776
"832","2",30,50,42,1,157.48,40.82,32,11,43,55,"7599","2","3","2",5,"180","29",630,6,"1",0.6166833
"833","2",30,50,42,1,157.48,40.82,32,11,43,55,"455","1","3","1",6,"0","30",9,5,"1",0.5667335
"834","2",30,50,42,1,157.48,40.82,32,11,43,55,"14699","2","2","2",5,"180","31",398,6,"1",0.9999637
"835","2",30,50,42,1,157.48,40.82,32,11,43,55,"13155","1","1","1",5,"180","32",352,6,"1",1.1167214
"836","2",30,50,42,1,157.48,40.82,32,11,43,55,"9599","2","1","1",6,"0","33",673,5,"1",1.216702
"837","2",30,50,42,1,157.48,40.82,32,11,43,55,"10355","1","2","2",5,"180","34",266,6,"1",0.7666958
"838","2",30,50,42,1,157.48,40.82,32,11,43,55,"5299","2","2","1",5,"180","35",572,6,"1",2.666597
"839","2",30,50,42,1,157.48,40.82,32,11,43,55,"799","2","3","2",5,"180","36",18,6,"1",0.4502579
"840","2",30,50,42,1,157.48,40.82,32,11,43,55,"16299","2","2","1",6,"0","37",845,5,"1",0.5167021
"841","2",30,50,42,1,157.48,40.82,32,11,43,55,"1699","2","1","2",5,"180","38",466,6,"1",0.9833851
"842","2",30,50,42,1,157.48,40.82,32,11,43,55,"1199","2","2","2",5,"180","39",458,6,"1",0.4500673
"843","2",30,50,42,1,157.48,40.82,32,11,43,55,"2999","2","2","1",5,"180","40",512,6,"1",0.4334473
"844","2",30,50,42,1,157.48,40.82,32,11,43,55,"6699","2","2","1",6,"0","41",605,5,"1",1.0333887
"845","2",30,50,42,1,157.48,40.82,32,11,43,55,"11755","1","3","2",5,"180","42",306,6,"1",1.4166135
"846","2",30,50,42,1,157.48,40.82,32,11,43,55,"7199","2","1","2",5,"180","43",622,6,"1",0.4667506
"847","2",30,50,42,1,157.48,40.82,32,11,43,55,"10199","2","1","1",5,"180","44",688,6,"1",0.8833291
"848","2",30,50,42,1,157.48,40.82,32,11,43,55,"3699","2","3","1",5,"180","45",108,6,"1",0.6001128
"849","2",30,50,42,1,157.48,40.82,32,11,43,55,"1099","2","3","2",6,"0","46",27,5,"1",0.6500324
"850","2",30,50,42,1,157.48,40.82,32,11,43,55,"4399","2","1","1",5,"180","47",556,6,"1",1.2333546
"851","2",30,50,42,1,157.48,40.82,32,11,43,55,"299","2","1","2",5,"180","48",430,6,"1",1.183332
"852","2",30,50,42,1,157.48,40.82,32,11,43,55,"4599","2","3","2",5,"180","49",558,6,"1",1.1333741
"853","2",30,50,42,1,157.48,40.82,32,11,43,55,"455","1","1","2",5,"180","50",10,6,"1",2.3333505
"854","2",30,50,42,1,157.48,40.82,32,11,43,55,"9399","2","3","1",5,"180","51",240,6,"1",0.7166768
"855","2",30,50,42,1,157.48,40.82,32,11,43,55,"8699","2","1","2",6,"0","52",655,5,"1",0.5333405
"856","2",30,50,42,1,157.48,40.82,32,11,43,55,"12099","2","3","1",5,"180","53",312,6,"1",2.1334161
"857","2",30,50,42,1,157.48,40.82,32,11,43,55,"2299","2","1","2",6,"0","54",487,5,"1",4.5168185
"858","2",30,50,42,1,157.48,40.82,32,11,43,55,"2655","1","2","1",6,"0","55",497,5,"1",0.5834217
"859","2",30,50,42,1,157.48,40.82,32,11,43,55,"6999","2","2","2",6,"0","56",191,5,"1",0.7167669
"860","2",30,50,42,1,157.48,40.82,32,11,43,55,"7799","2","3","1",5,"180","57",636,6,"1",1.00003
"861","2",30,50,42,1,157.48,40.82,32,11,43,55,"5899","2","2","2",5,"180","58",158,6,"1",1.7833747
"862","2",30,50,42,1,157.48,40.82,32,11,43,55,"3155","1","2","2",5,"180","59",518,6,"1",2.3499937
"863","2",30,50,42,1,157.48,40.82,32,11,43,55,"11799","2","1","1",5,"180","60",736,6,"1",0.3667613
"864","2",30,50,42,1,157.48,40.82,32,11,43,55,"2655","1","1","2",5,"180","61",70,6,"1",0.6334053
"865","2",30,50,42,1,157.48,40.82,32,11,43,55,"11599","2","3","1",5,"180","62",300,6,"1",0.6000297
"866","2",30,50,42,1,157.48,40.82,32,11,43,55,"4999","2","3","2",6,"0","63",567,5,"1",0.5334101
"867","2",30,50,42,1,157.48,40.82,32,11,43,55,"2699","2","3","2",5,"180","64",498,6,"1",0.5833056
"868","2",30,50,42,1,157.48,40.82,32,11,43,55,"6955","1","3","2",5,"180","65",186,6,"1",1.5833876
"869","2",30,50,42,1,157.48,40.82,32,11,43,55,"15899","2","1","2",5,"180","66",838,6,"1",0.3834573
"870","2",30,50,42,1,157.48,40.82,32,11,43,55,"10999","2","1","1",6,"0","67",289,5,"1",0.5333619
"871","2",30,50,42,1,157.48,40.82,32,11,43,55,"14699","2","1","1",6,"0","68",397,5,"1",0.9999981
"872","2",30,50,42,1,157.48,40.82,32,11,43,55,"2099","2","1","1",5,"180","69",52,6,"1",2.866722
"873","2",30,50,42,1,157.48,40.82,32,11,43,55,"3599","2","1","2",5,"180","70",106,6,"1",0.5667797
"874","2",30,50,42,1,157.48,40.82,32,11,43,55,"12855","1","2","2",5,"180","71",770,6,"1",0.3667131
"875","2",30,50,42,1,157.48,40.82,32,11,43,55,"2399","2","3","2",6,"0","72",63,5,"1",0.5167735
"876","2",30,50,42,1,157.48,40.82,32,11,43,55,"16299","2","3","1",6,"0","74",417,5,"1",0.7334613
"877","2",30,50,42,1,157.48,40.82,32,11,43,55,"12599","2","1","2",5,"180","75",334,6,"1",0.5167943
"878","2",30,50,42,1,157.48,40.82,32,11,43,55,"1899","2","3","2",5,"180","76",474,6,"1",0.43336
"879","2",30,50,42,1,157.48,40.82,32,11,43,55,"6599","2","2","2",5,"180","77",602,6,"1",0.4000599
"880","2",30,50,42,1,157.48,40.82,32,11,43,55,"7999","2","3","1",6,"0","78",213,5,"1",0.4667012
"881","2",30,50,42,1,157.48,40.82,32,11,43,55,"4155","1","3","2",5,"180","79",546,6,"1",0.6167146
"882","2",30,50,42,1,157.48,40.82,32,11,43,55,"14499","2","2","2",6,"0","80",395,5,"1",1.3667827
"883","2",30,50,42,1,157.48,40.82,32,11,43,55,"1199","2","2","1",5,"180","81",32,6,"1",0.6334602
"884","2",30,50,42,1,157.48,40.82,32,11,43,55,"6999","2","1","1",5,"180","82",616,6,"1",0.516715
"885","2",30,50,42,1,157.48,40.82,32,11,43,55,"2155","1","3","2",5,"180","83",54,6,"1",0.4346353
"886","2",30,50,42,1,157.48,40.82,32,11,43,55,"5799","2","1","1",5,"180","84",580,6,"1",0.5000124
"887","2",30,50,42,1,157.48,40.82,32,11,43,55,"14699","2","2","1",5,"180","85",824,6,"1",0.5001229
"888","2",30,50,42,1,157.48,40.82,32,11,43,55,"6399","2","3","2",6,"0","86",171,5,"1",0.651374
"889","2",30,50,42,1,157.48,40.82,32,11,43,55,"12299","2","3","2",6,"0","87",747,5,"1",0.8008221
"890","2",30,50,42,1,157.48,40.82,32,11,43,55,"10099","2","3","2",6,"0","88",255,5,"1",0.800126
"891","2",30,50,42,1,157.48,40.82,32,11,43,55,"3155","1","1","1",6,"0","90",517,5,"1",0.3667643
"892","2",30,50,42,1,157.48,40.82,32,11,43,55,"11399","2","1","1",5,"180","91",724,6,"1",0.5834179
"893","2",30,50,42,1,157.48,40.82,32,11,43,55,"6355","1","3","1",5,"180","92",168,6,"1",1.7667492
"894","2",30,50,42,1,157.48,40.82,32,11,43,55,"13055","1","1","1",6,"0","93",349,5,"1",0.6500922
"895","2",30,50,42,1,157.48,40.82,32,11,43,55,"499","2","2","2",5,"180","94",14,6,"1",1.5334092
"896","2",30,50,42,1,157.48,40.82,32,11,43,55,"6099","2","1","2",5,"180","95",586,6,"1",1.4333414
"897","2",30,50,42,1,157.48,40.82,32,11,43,55,"15099","2","2","1",6,"0","96",401,5,"1",0.4834096
"898","2",30,50,42,1,157.48,40.82,32,11,43,55,"12199","2","2","2",5,"180","97",746,6,"1",1.4832958
"899","2",30,50,42,1,157.48,40.82,32,11,43,55,"12555","1","1","1",6,"0","98",757,5,"1",0.7000563
"900","2",30,50,42,1,157.48,40.82,32,11,43,55,"12155","1","1","1",5,"180","99",316,6,"1",0.7667807
"901","2",30,50,42,1,157.48,40.82,32,11,43,55,"7999","2","3","2",6,"0","100",639,5,"1",0.9167668
"902","2",30,50,42,1,157.48,40.82,32,11,43,55,"1799","2","1","2",6,"0","101",43,5,"1",0.6666186
"903","2",30,50,42,1,157.48,40.82,32,11,43,55,"4199","2","2","2",6,"0","102",551,5,"1",1.6333714
"904","2",30,50,42,1,157.48,40.82,32,11,43,55,"13855","1","3","2",6,"0","103",795,5,"1",0.4334179
"905","2",30,50,42,1,157.48,40.82,32,11,43,55,"299","2","2","1",6,"0","104",5,5,"1",1.3500786
"906","2",30,50,42,1,157.48,40.82,32,11,43,55,"6399","2","3","1",6,"0","105",597,5,"1",1.0166276
"907","2",30,50,42,1,157.48,40.82,32,11,43,55,"13299","2","1","2",6,"0","106",787,5,"1",0.3834007
"908","2",30,50,42,1,157.48,40.82,32,11,43,55,"399","2","3","1",5,"180","107",432,6,"1",0.5334457
"909","2",30,50,42,1,157.48,40.82,32,11,43,55,"17355","1","3","1",6,"0","108",849,5,"1",0.5833913
"910","2",30,50,42,1,157.48,40.82,32,11,43,55,"1899","2","1","2",6,"0","109",475,5,"1",0.983383
"911","2",30,50,42,1,157.48,40.82,32,11,43,55,"6955","1","3","1",5,"180","110",612,6,"1",0.4667942
"912","2",30,50,42,1,157.48,40.82,32,11,43,55,"11755","1","1","2",6,"0","112",307,5,"1",0.4667044
"913","2",30,50,42,1,157.48,40.82,32,11,43,55,"2255","1","2","2",6,"0","113",59,5,"1",0.7167859
"914","2",30,50,42,1,157.48,40.82,32,11,43,55,"13899","2","3","1",5,"180","114",372,6,"1",0.6333637
"915","2",30,50,42,1,157.48,40.82,32,11,43,55,"7399","2","2","2",6,"0","115",203,5,"1",1.0333526
"916","2",30,50,42,1,157.48,40.82,32,11,43,55,"899","2","2","2",6,"0","116",23,5,"1",0.5833498
"917","2",30,50,42,1,157.48,40.82,32,11,43,55,"10155","1","2","2",5,"180","117",686,6,"1",0.8834187
"918","2",30,50,42,1,157.48,40.82,32,11,43,55,"14055","1","3","2",6,"0","119",375,5,"1",0.5000156
"919","2",30,50,42,1,157.48,40.82,32,11,43,55,"6299","2","2","1",6,"0","120",593,5,"1",0.466778
"920","2",30,50,42,1,157.48,40.82,32,11,43,55,"3299","2","3","1",5,"180","121",96,6,"1",0.5346613
"921","2",30,50,42,1,157.48,40.82,32,11,43,55,"12599","2","1","1",5,"180","122",760,6,"1",1.9667643
"922","2",30,50,42,1,157.48,40.82,32,11,43,55,"2299","2","3","1",5,"180","123",60,6,"1",0.3834134
"923","2",30,50,42,1,157.48,40.82,32,11,43,55,"4599","2","2","1",5,"180","124",560,6,"1",0.500017
"924","2",30,50,42,1,157.48,40.82,32,11,43,55,"3899","2","3","2",5,"180","125",114,6,"1",0.6501064
"925","2",30,50,42,1,157.48,40.82,32,11,43,55,"14299","2","1","2",6,"0","126",811,5,"1",1.3000043
"926","2",30,50,42,1,157.48,40.82,32,11,43,55,"14199","2","3","2",6,"0","127",807,5,"1",0.5833783
"927","2",30,50,42,1,157.48,40.82,32,11,43,55,"3599","2","3","1",6,"0","128",105,5,"1",0.6834038
"928","2",30,50,42,1,157.48,40.82,32,11,43,55,"799","2","2","1",5,"180","129",20,6,"1",0.5834064
"929","2",30,50,42,1,157.48,40.82,32,11,43,55,"7099","2","3","1",5,"180","130",192,6,"1",0.85003
"930","2",30,50,42,1,157.48,40.82,32,11,43,55,"599","2","2","2",6,"0","131",443,5,"1",0.6833402
"931","2",30,50,42,1,157.48,40.82,32,11,43,55,"1799","2","2","1",5,"180","132",44,6,"1",1.066742
"932","2",30,50,42,1,157.48,40.82,32,11,43,55,"2955","1","3","2",6,"0","133",507,5,"1",0.5667836
"933","2",30,50,42,1,157.48,40.82,32,11,43,55,"6399","2","1","1",5,"180","134",172,6,"1",1.0834138
"934","2",30,50,42,1,157.48,40.82,32,11,43,55,"6099","2","2","2",6,"0","135",587,5,"1",0.4667236
"935","2",30,50,42,1,157.48,40.82,32,11,43,55,"15399","2","2","1",6,"0","136",833,5,"1",0.8000519
"936","2",30,50,42,1,157.48,40.82,32,11,43,55,"14055","1","1","1",5,"180","137",376,6,"1",0.500046
"937","2",30,50,42,1,157.48,40.82,32,11,43,55,"8099","2","1","2",6,"0","138",643,5,"1",0.5167812
"938","2",30,50,42,1,157.48,40.82,32,11,43,55,"1899","2","2","1",5,"180","139",476,6,"1",0.9999892
"939","2",30,50,42,1,157.48,40.82,32,11,43,55,"11099","2","2","2",6,"0","140",719,5,"1",0.6001294
"940","2",30,50,42,1,157.48,40.82,32,11,43,55,"12499","2","3","2",6,"0","141",327,5,"1",0.6671669
"941","2",30,50,42,1,157.48,40.82,32,11,43,55,"4199","2","1","1",5,"180","142",124,6,"1",0.5333896
"942","2",30,50,42,1,157.48,40.82,32,11,43,55,"1699","2","3","1",6,"0","143",465,5,"1",0.9167929
"943","2",30,50,42,1,157.48,40.82,32,11,43,55,"5899","2","1","2",6,"0","144",583,5,"1",1.0666174
"944","2",30,50,42,1,157.48,40.82,32,11,43,55,"7699","2","2","1",6,"0","145",209,5,"1",0.6667666
"945","2",30,50,42,1,157.48,40.82,32,11,43,55,"6199","2","3","2",5,"180","146",162,6,"1",0.5667738
"946","2",30,50,42,1,157.48,40.82,32,11,43,55,"2799","2","2","1",6,"0","147",77,5,"1",0.5166925
"947","2",30,50,42,1,157.48,40.82,32,11,43,55,"4899","2","1","2",6,"0","148",139,5,"1",0.4834677
"948","2",30,50,42,1,157.48,40.82,32,11,43,55,"3799","2","2","2",6,"0","149",539,5,"1",0.7334135
"949","2",30,50,42,1,157.48,40.82,32,11,43,55,"2099","2","3","1",6,"0","150",477,5,"1",0.4334171
"950","2",30,50,42,1,157.48,40.82,32,11,43,55,"11799","2","3","1",6,"0","151",309,5,"1",0.3834216
"951","2",30,50,42,1,157.48,40.82,32,11,43,55,"3399","2","2","1",5,"180","152",104,6,"1",0.4333916
"952","2",30,50,42,1,157.48,40.82,32,11,43,55,"7599","2","1","1",6,"0","153",205,5,"1",0.4839171
"953","2",30,50,42,1,157.48,40.82,32,11,43,55,"199","2","1","1",6,"0","154",1,5,"1",0.5667609
"954","2",30,50,42,1,157.48,40.82,32,11,43,55,"4599","2","2","2",5,"180","155",134,6,"1",0.6667743
"955","2",30,50,42,1,157.48,40.82,32,11,43,55,"12199","2","2","1",5,"180","156",320,6,"1",0.5833515
"956","2",30,50,42,1,157.48,40.82,32,11,43,55,"999","2","2","2",5,"180","157",26,6,"1",0.6183956
"957","2",30,50,42,1,157.48,40.82,32,11,43,55,"1899","2","3","1",5,"180","158",48,6,"1",0.5166587
"958","2",30,50,42,1,157.48,40.82,32,11,43,55,"1199","2","3","1",5,"180","159",456,6,"1",0.5515899
"959","2",30,50,42,1,157.48,40.82,32,11,43,55,"13699","2","3","1",5,"180","160",792,6,"1",0.5667833
"960","2",30,50,42,1,157.48,40.82,32,11,43,55,"11799","2","3","2",6,"0","161",735,5,"1",0.5500296
"961","2",30,50,42,1,157.48,40.82,32,11,43,55,"299","2","1","1",5,"180","162",4,6,"1",0.5687716
"962","2",30,50,42,1,157.48,40.82,32,11,43,55,"3099","2","1","2",5,"180","163",514,6,"1",0.6833593
"963","2",30,50,42,1,157.48,40.82,32,11,43,55,"1099","2","2","1",6,"0","164",29,5,"1",0.7334312
"964","2",30,50,42,1,157.48,40.82,32,11,43,55,"5599","2","1","2",5,"180","165",574,6,"1",1.0166891
"965","2",30,50,42,1,157.48,40.82,32,11,43,55,"12555","1","3","1",5,"180","166",756,6,"1",0.333305
"966","2",30,50,42,1,157.48,40.82,32,11,43,55,"2955","1","1","2",5,"180","167",82,6,"1",0.3500438
"967","2",30,50,42,1,157.48,40.82,32,11,43,55,"2699","2","3","1",5,"180","169",72,6,"1",0.4832782
"968","2",30,50,42,1,157.48,40.82,32,11,43,55,"13199","2","2","1",5,"180","170",356,6,"1",0.9501212
"969","2",30,50,42,1,157.48,40.82,32,11,43,55,"14355","1","2","2",6,"0","171",815,5,"1",0.9502862
"970","2",30,50,42,1,157.48,40.82,32,11,43,55,"4155","1","1","2",6,"0","173",547,5,"1",0.3500531
"971","2",30,50,42,1,157.48,40.82,32,11,43,55,"7999","2","2","1",6,"0","174",641,5,"1",0.7000235
"972","2",30,50,42,1,157.48,40.82,32,11,43,55,"13255","1","1","1",5,"180","176",784,6,"1",0.5001308
"973","2",30,50,42,1,157.48,40.82,32,11,43,55,"12355","1","2","1",5,"180","177",752,6,"1",0.3501327
"974","2",30,50,42,1,157.48,40.82,32,11,43,55,"13299","2","1","1",6,"0","179",361,5,"1",0.5667398
"975","2",30,50,42,1,157.48,40.82,32,11,43,55,"14399","2","2","2",5,"180","180",818,6,"1",0.6334666
"976","2",30,50,42,1,157.48,40.82,32,11,43,55,"7999","2","2","2",6,"0","181",215,5,"1",0.7333951
"977","2",30,50,42,1,157.48,40.82,32,11,43,55,"2599","2","2","1",5,"180","182",68,6,"1",0.7666424
"978","2",30,50,42,1,157.48,40.82,32,11,43,55,"2255","1","1","2",5,"180","183",58,6,"1",1.4667596
"979","2",30,50,42,1,157.48,40.82,32,11,43,55,"8699","2","2","1",5,"180","184",656,6,"1",0.6167683
"980","2",30,50,42,1,157.48,40.82,32,11,43,55,"17255","1","1","2",6,"0","185",847,5,"1",0.5500452
"981","2",30,50,42,1,157.48,40.82,32,11,43,55,"12499","2","3","1",6,"0","186",753,5,"1",0.7001315
"982","2",30,50,42,1,157.48,40.82,32,11,43,55,"2999","2","1","1",6,"0","187",85,5,"1",0.6833976
"983","2",30,50,42,1,157.48,40.82,32,11,43,55,"9199","2","3","2",5,"180","188",234,6,"1",0.7166704
"984","2",30,50,42,1,157.48,40.82,32,11,43,55,"10855","1","1","1",6,"0","189",709,5,"1",0.9500968
