ID,Snellen,Height,Weight,Grip_Strength,Chest_Strength,Handedness,DomSum,TDSum,State_Anxiety,Trait_Anxiety,cue_image,Face_Set_Code,Face_Type_Code,cue_position_x,cue_position_y,target_position_x,target_position_y,conguruence,corAns,orientation,trials.thisTrialN,trials.thisIndex,Experiment_Trials_button.keys,Experiment_Trials_button.corr,Experiment_Trials_button.rt
37,40,167.8,143.9,80,60,1,37,16,36,38,70100,2,1,-2,0,2,0,0,5,0,0,207,5,1,0.4832913
37,40,167.8,143.9,80,60,1,37,16,36,38,131100,2,2,-2,0,2,0,0,5,0,1,369,5,1,0.4334959
37,40,167.8,143.9,80,60,1,37,16,36,38,153100,2,2,-2,0,-2,0,4,5,0,2,418,5,1,0.3833012
37,40,167.8,143.9,80,60,1,37,16,36,38,11100,2,2,2,0,2,0,4,5,0,3,38,5,1,0.4168029
37,40,167.8,143.9,80,60,1,37,16,36,38,173500,1,1,2,0,2,0,4,5,0,4,564,5,1,0.3501351
37,40,167.8,143.9,80,60,1,37,16,36,38,162100,2,1,2,0,-2,0,0,6,45,5,435,6,1,0.5500432
37,40,167.8,143.9,80,60,1,37,16,36,38,109100,2,1,-2,0,2,0,0,6,45,6,311,6,1,0.500138
37,40,167.8,143.9,80,60,1,37,16,36,38,101100,2,1,2,0,2,0,4,6,45,7,288,6,1,0.5501852
37,40,167.8,143.9,80,60,1,37,16,36,38,27100,2,2,2,0,2,0,4,5,0,8,78,5,1,0.6666934
37,40,167.8,143.9,80,60,1,37,16,36,38,9100,2,1,-2,0,-2,0,4,5,0,9,28,5,1,0.4000251
37,40,167.8,143.9,80,60,1,37,16,36,38,107100,2,2,2,0,-2,0,0,6,45,10,301,6,1,0.5005871
37,40,167.8,143.9,80,60,1,37,16,36,38,111100,2,1,-2,0,2,0,0,5,0,11,319,5,1,0.500011
37,40,167.8,143.9,80,60,1,37,16,36,38,81100,2,2,-2,0,-2,0,4,5,0,12,242,5,1,0.4333794
37,40,167.8,143.9,80,60,1,37,16,36,38,4100,2,2,2,0,2,0,4,6,45,13,14,6,1,0.5001256
37,40,167.8,143.9,80,60,1,37,16,36,38,62100,2,1,-2,0,2,0,0,6,45,14,183,6,1,0.4834115
37,40,167.8,143.9,80,60,1,37,16,36,38,87100,2,2,-2,0,2,0,0,6,45,15,257,6,1,0.5334093
37,40,167.8,143.9,80,60,1,37,16,36,38,30100,2,1,2,0,2,0,4,6,45,16,88,6,1,0.4666403
37,40,167.8,143.9,80,60,1,37,16,36,38,60100,2,1,-2,0,2,0,0,5,0,17,175,5,1,0.4666974
37,40,167.8,143.9,80,60,1,37,16,36,38,23100,2,2,-2,0,2,0,0,5,0,18,65,5,1,0.5167439
37,40,167.8,143.9,80,60,1,37,16,36,38,61100,2,2,-2,0,-2,0,4,5,0,19,178,5,1,0.5667934
37,40,167.8,143.9,80,60,1,37,16,36,38,100100,2,2,2,0,-2,0,0,6,45,20,285,6,1,0.5515813
37,40,167.8,143.9,80,60,1,37,16,36,38,107100,2,1,-2,0,-2,0,4,6,45,21,300,6,1,0.5500115
37,40,167.8,143.9,80,60,1,37,16,36,38,3100,2,1,2,0,2,0,4,5,0,22,8,5,1,0.4999368
37,40,167.8,143.9,80,60,1,37,16,36,38,68100,2,1,-2,0,2,0,0,5,0,23,199,5,1,0.5167895
37,40,167.8,143.9,80,60,1,37,16,36,38,117100,2,2,2,0,2,0,4,6,45,24,334,6,1,0.5667938
37,40,167.8,143.9,80,60,1,37,16,36,38,120100,2,1,2,0,-2,0,0,6,45,25,339,6,1,0.5861312
37,40,167.8,143.9,80,60,1,37,16,36,38,108100,2,2,-2,0,2,0,0,5,0,26,305,5,1,0.4666836
37,40,167.8,143.9,80,60,1,37,16,36,38,125500,1,1,-2,0,-2,0,4,6,45,27,524,6,1,0.516657
37,40,167.8,143.9,80,60,1,37,16,36,38,7100,2,1,-2,0,2,0,0,6,45,28,23,5,0,0.4666253
37,40,167.8,143.9,80,60,1,37,16,36,38,140500,1,1,-2,0,-2,0,4,6,45,29,548,6,1,0.683439
37,40,167.8,143.9,80,60,1,37,16,36,38,4100,2,1,-2,0,-2,0,4,6,45,30,12,6,1,0.4667935
37,40,167.8,143.9,80,60,1,37,16,36,38,69100,2,2,-2,0,2,0,0,6,45,31,201,6,1,0.5166857
37,40,167.8,143.9,80,60,1,37,16,36,38,5100,2,2,-2,0,-2,0,4,5,0,32,18,5,1,0.4666816
37,40,167.8,143.9,80,60,1,37,16,36,38,141100,2,2,2,0,2,0,4,6,45,33,390,6,1,0.5501208
37,40,167.8,143.9,80,60,1,37,16,36,38,21500,1,1,2,0,-2,0,0,6,45,34,451,6,1,0.5833626
37,40,167.8,143.9,80,60,1,37,16,36,38,136100,2,1,-2,0,-2,0,4,5,0,35,380,5,1,0.4834074
37,40,167.8,143.9,80,60,1,37,16,36,38,57100,2,1,-2,0,2,0,0,5,0,36,167,5,1,0.5166955
37,40,167.8,143.9,80,60,1,37,16,36,38,11100,2,1,-2,0,-2,0,4,6,45,37,36,6,1,0.4833151
37,40,167.8,143.9,80,60,1,37,16,36,38,142100,2,1,2,0,-2,0,0,6,45,38,395,6,1,0.4833511
37,40,167.8,143.9,80,60,1,37,16,36,38,172500,1,2,2,0,-2,0,0,5,0,39,561,5,1,0.4668112
37,40,167.8,143.9,80,60,1,37,16,36,38,52100,2,2,-2,0,-2,0,4,6,45,40,154,6,1,0.516789
37,40,167.8,143.9,80,60,1,37,16,36,38,69500,1,1,2,0,-2,0,0,5,0,41,487,5,1,0.5333522
37,40,167.8,143.9,80,60,1,37,16,36,38,68500,1,1,2,0,-2,0,0,5,0,42,483,5,1,0.4666954
37,40,167.8,143.9,80,60,1,37,16,36,38,93100,2,2,-2,0,2,0,0,6,45,43,265,6,1,0.500105
37,40,167.8,143.9,80,60,1,37,16,36,38,38100,2,2,2,0,-2,0,0,6,45,44,117,6,1,0.4688033
37,40,167.8,143.9,80,60,1,37,16,36,38,45100,2,2,-2,0,-2,0,4,5,0,45,138,5,1,0.5666225
37,40,167.8,143.9,80,60,1,37,16,36,38,143500,1,1,2,0,-2,0,0,5,0,46,559,5,1,0.4500921
37,40,167.8,143.9,80,60,1,37,16,36,38,117500,1,1,-2,0,2,0,0,5,0,47,515,5,1,0.5166193
37,40,167.8,143.9,80,60,1,37,16,36,38,134100,2,1,2,0,2,0,4,5,0,48,376,5,1,0.5000367
37,40,167.8,143.9,80,60,1,37,16,36,38,91100,2,2,2,0,-2,0,0,6,45,49,261,6,1,0.4667772
37,40,167.8,143.9,80,60,1,37,16,36,38,75100,2,1,-2,0,2,0,0,6,45,50,223,6,1,0.5168105
37,40,167.8,143.9,80,60,1,37,16,36,38,13100,2,2,-2,0,-2,0,4,5,0,51,42,5,1,0.5333153
37,40,167.8,143.9,80,60,1,37,16,36,38,56100,2,1,2,0,2,0,4,6,45,52,160,6,1,0.4833421
37,40,167.8,143.9,80,60,1,37,16,36,38,141500,1,1,2,0,2,0,4,5,0,53,552,5,1,0.500104
37,40,167.8,143.9,80,60,1,37,16,36,38,108500,1,1,2,0,-2,0,0,5,0,54,511,5,1,0.5000789
37,40,167.8,143.9,80,60,1,37,16,36,38,5100,2,2,-2,0,2,0,0,5,0,55,17,5,1,0.4000139
37,40,167.8,143.9,80,60,1,37,16,36,38,143100,2,2,2,0,2,0,4,6,45,56,398,6,1,0.5166816
37,40,167.8,143.9,80,60,1,37,16,36,38,107100,2,1,-2,0,2,0,0,5,0,57,303,5,1,0.5000881
37,40,167.8,143.9,80,60,1,37,16,36,38,20100,2,1,2,0,2,0,4,6,45,58,56,6,1,0.6000208
37,40,167.8,143.9,80,60,1,37,16,36,38,31100,2,1,-2,0,-2,0,4,5,0,59,92,5,1,0.4519292
37,40,167.8,143.9,80,60,1,37,16,36,38,120100,2,2,-2,0,-2,0,4,5,0,60,338,5,1,0.450041
37,40,167.8,143.9,80,60,1,37,16,36,38,136100,2,2,2,0,2,0,4,5,0,61,382,5,1,0.4167623
37,40,167.8,143.9,80,60,1,37,16,36,38,86100,2,1,-2,0,2,0,0,6,45,62,255,5,0,0.3667212
37,40,167.8,143.9,80,60,1,37,16,36,38,47100,2,1,-2,0,-2,0,4,6,45,63,140,6,1,0.5166798
37,40,167.8,143.9,80,60,1,37,16,36,38,3100,2,2,-2,0,2,0,0,5,0,64,9,5,1,0.5001185
37,40,167.8,143.9,80,60,1,37,16,36,38,41100,2,1,-2,0,2,0,0,5,0,65,127,5,1,0.5166859
37,40,167.8,143.9,80,60,1,37,16,36,38,61100,2,1,2,0,2,0,4,5,0,66,176,5,1,0.4834487
37,40,167.8,143.9,80,60,1,37,16,36,38,29500,1,1,2,0,2,0,4,5,0,67,460,5,1,0.4500292
37,40,167.8,143.9,80,60,1,37,16,36,38,91100,2,1,-2,0,2,0,0,6,45,68,263,6,1,0.4833454
37,40,167.8,143.9,80,60,1,37,16,36,38,130500,1,2,-2,0,2,0,0,6,45,69,533,6,1,0.5667139
37,40,167.8,143.9,80,60,1,37,16,36,38,134100,2,1,2,0,-2,0,0,5,0,70,379,5,1,0.5026134
37,40,167.8,143.9,80,60,1,37,16,36,38,31500,1,2,2,0,-2,0,0,5,0,71,465,5,1,0.7167977
37,40,167.8,143.9,80,60,1,37,16,36,38,57100,2,2,2,0,-2,0,0,5,0,72,165,5,1,0.4334708
37,40,167.8,143.9,80,60,1,37,16,36,38,92500,1,2,2,0,2,0,4,5,0,73,490,5,1,0.5166877
37,40,167.8,143.9,80,60,1,37,16,36,38,22100,2,2,2,0,2,0,4,6,45,74,62,6,1,0.5000968
37,40,167.8,143.9,80,60,1,37,16,36,38,5100,2,1,2,0,-2,0,0,6,45,75,19,6,1,0.5834219
37,40,167.8,143.9,80,60,1,37,16,36,38,152100,2,1,-2,0,2,0,0,5,0,76,415,5,1,0.550028
37,40,167.8,143.9,80,60,1,37,16,36,38,69500,1,2,-2,0,-2,0,4,6,45,77,486,6,1,0.5666774
37,40,167.8,143.9,80,60,1,37,16,36,38,41100,2,2,2,0,2,0,4,6,45,78,126,6,1,0.5667109
37,40,167.8,143.9,80,60,1,37,16,36,38,106100,2,1,2,0,-2,0,0,6,45,79,299,6,1,0.50265
37,40,167.8,143.9,80,60,1,37,16,36,38,26500,1,1,2,0,-2,0,0,5,0,80,459,5,1,0.5501686
37,40,167.8,143.9,80,60,1,37,16,36,38,20100,2,2,-2,0,2,0,0,5,0,81,57,5,1,0.4667944
37,40,167.8,143.9,80,60,1,37,16,36,38,35100,2,1,2,0,-2,0,0,5,0,82,107,5,1,0.3999165
37,40,167.8,143.9,80,60,1,37,16,36,38,38100,2,1,-2,0,-2,0,4,6,45,83,116,6,1,0.5167832
37,40,167.8,143.9,80,60,1,37,16,36,38,35100,2,2,-2,0,-2,0,4,6,45,84,106,6,1,0.4833587
37,40,167.8,143.9,80,60,1,37,16,36,38,123500,1,1,2,0,-2,0,0,6,45,85,523,6,1,0.4666481
37,40,167.8,143.9,80,60,1,37,16,36,38,31100,2,2,2,0,-2,0,0,5,0,86,93,6,0,0.4999836
37,40,167.8,143.9,80,60,1,37,16,36,38,56100,2,2,-2,0,-2,0,4,6,45,87,162,6,1,0.5333883
37,40,167.8,143.9,80,60,1,37,16,36,38,5100,2,1,2,0,2,0,4,6,45,88,16,6,1,0.48346
37,40,167.8,143.9,80,60,1,37,16,36,38,129100,2,1,-2,0,2,0,0,5,0,89,367,5,1,0.5166811
37,40,167.8,143.9,80,60,1,37,16,36,38,103500,1,1,2,0,2,0,4,6,45,90,496,6,1,0.5687858
37,40,167.8,143.9,80,60,1,37,16,36,38,96100,2,1,-2,0,-2,0,4,6,45,91,276,6,1,0.4678885
37,40,167.8,143.9,80,60,1,37,16,36,38,33100,2,1,-2,0,2,0,0,6,45,92,103,6,1,0.5000315
37,40,167.8,143.9,80,60,1,37,16,36,38,13100,2,1,2,0,2,0,4,6,45,93,40,6,1,0.483342
37,40,167.8,143.9,80,60,1,37,16,36,38,116100,2,2,-2,0,2,0,0,6,45,94,329,6,1,0.3999505
37,40,167.8,143.9,80,60,1,37,16,36,38,121500,1,1,2,0,-2,0,0,5,0,95,519,5,1,0.5172301
37,40,167.8,143.9,80,60,1,37,16,36,38,130500,1,2,-2,0,-2,0,4,6,45,96,534,6,1,0.5000984
37,40,167.8,143.9,80,60,1,37,16,36,38,125500,1,1,-2,0,2,0,0,5,0,97,527,5,1,0.4834665
37,40,167.8,143.9,80,60,1,37,16,36,38,31500,1,1,-2,0,2,0,0,5,0,98,467,5,1,0.5333527
37,40,167.8,143.9,80,60,1,37,16,36,38,131500,1,2,2,0,2,0,4,6,45,99,538,6,1,0.5501142
37,40,167.8,143.9,80,60,1,37,16,36,38,110100,2,1,2,0,2,0,4,6,45,100,312,6,1,0.4000389
37,40,167.8,143.9,80,60,1,37,16,36,38,1100,2,1,2,0,2,0,4,5,0,101,0,5,1,0.5333272
37,40,167.8,143.9,80,60,1,37,16,36,38,55100,2,1,-2,0,2,0,0,6,45,102,159,6,1,0.550052
37,40,167.8,143.9,80,60,1,37,16,36,38,84100,2,1,2,0,2,0,4,5,0,103,248,5,1,0.5166388
37,40,167.8,143.9,80,60,1,37,16,36,38,4500,1,2,-2,0,-2,0,4,6,45,104,438,6,1,0.5167308
37,40,167.8,143.9,80,60,1,37,16,36,38,121500,1,1,2,0,2,0,4,5,0,105,516,5,1,0.4862334
37,40,167.8,143.9,80,60,1,37,16,36,38,38100,2,1,-2,0,2,0,0,6,45,106,119,6,1,0.4666756
37,40,167.8,143.9,80,60,1,37,16,36,38,28100,2,2,-2,0,-2,0,4,6,45,107,82,6,1,0.5000415
37,40,167.8,143.9,80,60,1,37,16,36,38,158100,2,1,2,0,2,0,4,5,0,108,424,5,1,0.4667353
37,40,167.8,143.9,80,60,1,37,16,36,38,76100,2,2,-2,0,2,0,0,6,45,109,225,6,1,0.4168005
37,40,167.8,143.9,80,60,1,37,16,36,38,103500,1,2,-2,0,2,0,0,5,0,110,497,5,1,0.5334347
37,40,167.8,143.9,80,60,1,37,16,36,38,123500,1,1,2,0,2,0,4,5,0,111,520,5,1,0.3834478
37,40,167.8,143.9,80,60,1,37,16,36,38,65100,2,2,2,0,2,0,4,5,0,112,190,5,1,0.4834262
37,40,167.8,143.9,80,60,1,37,16,36,38,7100,2,1,-2,0,-2,0,4,5,0,113,20,5,1,0.5001131
37,40,167.8,143.9,80,60,1,37,16,36,38,101500,1,1,2,0,2,0,4,6,45,114,492,6,1,0.4500497
37,40,167.8,143.9,80,60,1,37,16,36,38,29500,1,1,2,0,-2,0,0,6,45,115,463,6,1,0.6000972
37,40,167.8,143.9,80,60,1,37,16,36,38,26500,1,2,-2,0,-2,0,4,6,45,116,458,6,1,0.5166349
37,40,167.8,143.9,80,60,1,37,16,36,38,98100,2,1,2,0,-2,0,0,6,45,117,283,6,1,0.5004083
37,40,167.8,143.9,80,60,1,37,16,36,38,61100,2,1,2,0,-2,0,0,6,45,118,179,6,1,0.5166855
37,40,167.8,143.9,80,60,1,37,16,36,38,26500,1,1,2,0,2,0,4,6,45,119,456,6,1,0.533391
37,40,167.8,143.9,80,60,1,37,16,36,38,125100,2,1,2,0,-2,0,0,6,45,120,355,6,1,0.5500038
37,40,167.8,143.9,80,60,1,37,16,36,38,117500,1,2,2,0,-2,0,0,5,0,121,513,5,1,0.4834164
37,40,167.8,143.9,80,60,1,37,16,36,38,122100,2,1,2,0,-2,0,0,5,0,122,347,5,1,0.4666381
37,40,167.8,143.9,80,60,1,37,16,36,38,158100,2,2,-2,0,-2,0,4,5,0,123,426,5,1,0.4667557
37,40,167.8,143.9,80,60,1,37,16,36,38,129100,2,2,2,0,2,0,4,5,0,124,366,5,1,0.5334601
37,40,167.8,143.9,80,60,1,37,16,36,38,128500,1,1,2,0,2,0,4,5,0,125,528,5,1,0.4667639
37,40,167.8,143.9,80,60,1,37,16,36,38,79100,2,1,2,0,-2,0,0,6,45,126,235,6,1,0.4833671
37,40,167.8,143.9,80,60,1,37,16,36,38,25100,2,1,-2,0,-2,0,4,6,45,127,68,6,1,0.5001443
37,40,167.8,143.9,80,60,1,37,16,36,38,134100,2,2,-2,0,-2,0,4,6,45,128,378,6,1,0.5167509
37,40,167.8,143.9,80,60,1,37,16,36,38,140500,1,1,-2,0,2,0,0,5,0,129,551,5,1,0.5167519
37,40,167.8,143.9,80,60,1,37,16,36,38,127100,2,1,2,0,2,0,4,6,45,130,360,5,0,0.5833663
37,40,167.8,143.9,80,60,1,37,16,36,38,37100,2,2,-2,0,2,0,0,5,0,131,113,5,1,0.4833295
37,40,167.8,143.9,80,60,1,37,16,36,38,141100,2,2,2,0,-2,0,0,6,45,132,389,6,1,0.4834606
37,40,167.8,143.9,80,60,1,37,16,36,38,95100,2,2,-2,0,-2,0,4,6,45,133,274,6,1,0.4999929
37,40,167.8,143.9,80,60,1,37,16,36,38,138100,2,1,2,0,-2,0,0,5,0,134,387,5,1,0.5167831
37,40,167.8,143.9,80,60,1,37,16,36,38,17100,2,1,2,0,2,0,4,6,45,135,48,6,1,0.5169237
37,40,167.8,143.9,80,60,1,37,16,36,38,45100,2,2,-2,0,2,0,0,5,0,136,137,5,1,0.5166654
37,40,167.8,143.9,80,60,1,37,16,36,38,138100,2,1,2,0,2,0,4,6,45,137,384,6,1,0.5000106
37,40,167.8,143.9,80,60,1,37,16,36,38,141500,1,1,2,0,-2,0,0,5,0,138,555,5,1,0.5501064
37,40,167.8,143.9,80,60,1,37,16,36,38,2100,2,1,-2,0,2,0,0,5,0,139,7,5,1,0.6166651
37,40,167.8,143.9,80,60,1,37,16,36,38,25100,2,2,2,0,2,0,4,6,45,140,70,5,0,0.6167203
37,40,167.8,143.9,80,60,1,37,16,36,38,79100,2,1,2,0,2,0,4,5,0,141,232,5,1,0.4844921
37,40,167.8,143.9,80,60,1,37,16,36,38,100100,2,1,-2,0,-2,0,4,6,45,142,284,6,1,0.5835661
37,40,167.8,143.9,80,60,1,37,16,36,38,25100,2,2,2,0,-2,0,0,5,0,143,69,5,1,0.6001118
37,40,167.8,143.9,80,60,1,37,16,36,38,75100,2,1,-2,0,-2,0,4,6,45,144,220,6,1,0.6167941
37,40,167.8,143.9,80,60,1,37,16,36,38,172500,1,1,-2,0,2,0,0,6,45,145,563,6,1,0.6834498
37,40,167.8,143.9,80,60,1,37,16,36,38,94100,2,2,2,0,-2,0,0,5,0,146,269,5,1,0.583267
37,40,167.8,143.9,80,60,1,37,16,36,38,31100,2,2,2,0,2,0,4,5,0,147,94,5,1,0.5000727
37,40,167.8,143.9,80,60,1,37,16,36,38,4500,1,1,2,0,2,0,4,6,45,148,436,6,1,0.5000082
37,40,167.8,143.9,80,60,1,37,16,36,38,13100,2,2,-2,0,2,0,0,6,45,149,41,6,1,0.5166036
37,40,167.8,143.9,80,60,1,37,16,36,38,93100,2,1,2,0,-2,0,0,6,45,150,267,6,1,0.6167325
37,40,167.8,143.9,80,60,1,37,16,36,38,132500,1,2,-2,0,-2,0,4,6,45,151,542,6,1,0.4666824
37,40,167.8,143.9,80,60,1,37,16,36,38,129100,2,1,-2,0,-2,0,4,6,45,152,364,6,1,0.5505468
37,40,167.8,143.9,80,60,1,37,16,36,38,18100,2,2,2,0,2,0,4,5,0,153,54,5,1,0.5001312
37,40,167.8,143.9,80,60,1,37,16,36,38,22500,1,1,-2,0,2,0,0,6,45,154,455,6,1,0.5501361
37,40,167.8,143.9,80,60,1,37,16,36,38,22100,2,1,-2,0,2,0,0,5,0,155,63,5,1,0.5833783
37,40,167.8,143.9,80,60,1,37,16,36,38,17100,2,2,-2,0,2,0,0,5,0,156,49,5,1,0.5334263
37,40,167.8,143.9,80,60,1,37,16,36,38,129100,2,2,2,0,-2,0,0,5,0,157,365,5,1,0.6333308
37,40,167.8,143.9,80,60,1,37,16,36,38,63500,1,1,-2,0,2,0,0,6,45,158,479,6,1,0.5667443
37,40,167.8,143.9,80,60,1,37,16,36,38,57100,2,2,2,0,2,0,4,5,0,159,166,5,1,0.6167309
37,40,167.8,143.9,80,60,1,37,16,36,38,128500,1,2,-2,0,-2,0,4,5,0,160,530,5,1,0.5667995
37,40,167.8,143.9,80,60,1,37,16,36,38,12500,1,2,2,0,2,0,4,6,45,161,442,6,1,0.4833173
37,40,167.8,143.9,80,60,1,37,16,36,38,27100,2,1,-2,0,-2,0,4,6,45,162,76,6,1,0.6674462
37,40,167.8,143.9,80,60,1,37,16,36,38,69500,1,1,2,0,2,0,4,5,0,163,484,5,1,0.5166692
37,40,167.8,143.9,80,60,1,37,16,36,38,36100,2,1,-2,0,2,0,0,6,45,164,111,5,0,0.8501252
37,40,167.8,143.9,80,60,1,37,16,36,38,122100,2,2,-2,0,2,0,0,5,0,165,345,5,1,0.5001289
37,40,167.8,143.9,80,60,1,37,16,36,38,68500,1,1,2,0,2,0,4,6,45,166,480,6,1,0.5169977
37,40,167.8,143.9,80,60,1,37,16,36,38,33100,2,2,2,0,2,0,4,6,45,167,102,6,1,0.4833579
37,40,167.8,143.9,80,60,1,37,16,36,38,173500,1,2,-2,0,-2,0,4,5,0,168,566,5,1,0.6333581
37,40,167.8,143.9,80,60,1,37,16,36,38,72100,2,1,-2,0,-2,0,4,5,0,169,212,5,1,0.4667836
37,40,167.8,143.9,80,60,1,37,16,36,38,16100,2,1,-2,0,-2,0,4,6,45,170,44,6,1,0.6499637
37,40,167.8,143.9,80,60,1,37,16,36,38,18100,2,1,-2,0,2,0,0,5,0,171,55,5,1,0.5501232
37,40,167.8,143.9,80,60,1,37,16,36,38,62100,2,2,2,0,2,0,4,5,0,172,182,5,1,0.566635
37,40,167.8,143.9,80,60,1,37,16,36,38,47100,2,2,2,0,-2,0,0,5,0,173,141,5,1,0.5836314
37,40,167.8,143.9,80,60,1,37,16,36,38,26100,2,2,-2,0,2,0,0,5,0,174,73,5,1,0.5515748
37,40,167.8,143.9,80,60,1,37,16,36,38,134100,2,2,-2,0,2,0,0,6,45,175,377,6,1,0.5179123
37,40,167.8,143.9,80,60,1,37,16,36,38,111100,2,2,2,0,-2,0,0,6,45,176,317,6,1,0.5167995
37,40,167.8,143.9,80,60,1,37,16,36,38,31500,1,2,2,0,2,0,4,6,45,177,466,6,1,0.4500989
37,40,167.8,143.9,80,60,1,37,16,36,38,40100,2,1,2,0,2,0,4,6,45,178,120,6,1,0.6333586
37,40,167.8,143.9,80,60,1,37,16,36,38,106100,2,2,-2,0,2,0,0,5,0,179,297,5,1,0.5001308
37,40,167.8,143.9,80,60,1,37,16,36,38,153100,2,2,-2,0,2,0,0,5,0,180,417,5,1,0.4519178
37,40,167.8,143.9,80,60,1,37,16,36,38,40100,2,1,2,0,-2,0,0,5,0,181,123,5,1,0.5001595
37,40,167.8,143.9,80,60,1,37,16,36,38,28100,2,1,2,0,-2,0,0,6,45,182,83,6,1,0.5501272
37,40,167.8,143.9,80,60,1,37,16,36,38,40100,2,2,-2,0,2,0,0,5,0,183,121,5,1,0.6833634
37,40,167.8,143.9,80,60,1,37,16,36,38,55100,2,2,2,0,-2,0,0,5,0,184,157,5,1,0.5834498
37,40,167.8,143.9,80,60,1,37,16,36,38,153100,2,1,2,0,2,0,4,5,0,185,416,5,1,0.5000224
37,40,167.8,143.9,80,60,1,37,16,36,38,26100,2,1,2,0,-2,0,0,5,0,186,75,5,1,0.50003
37,40,167.8,143.9,80,60,1,37,16,36,38,162100,2,1,2,0,2,0,4,5,0,187,432,5,1,0.4667999
37,40,167.8,143.9,80,60,1,37,16,36,38,125100,2,2,-2,0,-2,0,4,6,45,188,354,6,1,0.5499709
37,40,167.8,143.9,80,60,1,37,16,36,38,81100,2,1,2,0,-2,0,0,5,0,189,243,5,1,0.5333702
37,40,167.8,143.9,80,60,1,37,16,36,38,132500,1,1,2,0,2,0,4,5,0,190,540,5,1,0.6167435
37,40,167.8,143.9,80,60,1,37,16,36,38,29100,2,1,-2,0,2,0,0,6,45,191,87,6,1,0.5499706
37,40,167.8,143.9,80,60,1,37,16,36,38,29500,1,2,-2,0,2,0,0,5,0,192,461,5,1,0.4833367
37,40,167.8,143.9,80,60,1,37,16,36,38,125100,2,2,-2,0,2,0,0,6,45,193,353,6,1,0.7333054
37,40,167.8,143.9,80,60,1,37,16,36,38,84100,2,2,-2,0,2,0,0,6,45,194,249,6,1,0.4833595
37,40,167.8,143.9,80,60,1,37,16,36,38,172500,1,2,2,0,2,0,4,5,0,195,562,5,1,0.5166944
37,40,167.8,143.9,80,60,1,37,16,36,38,115100,2,1,-2,0,-2,0,4,6,45,196,324,6,1,0.650013
37,40,167.8,143.9,80,60,1,37,16,36,38,132100,2,2,2,0,-2,0,0,6,45,197,373,6,1,0.6166926
37,40,167.8,143.9,80,60,1,37,16,36,38,138100,2,2,-2,0,2,0,0,5,0,198,385,5,1,0.5333356
37,40,167.8,143.9,80,60,1,37,16,36,38,104500,1,1,-2,0,-2,0,4,5,0,199,500,5,1,0.5166524
37,40,167.8,143.9,80,60,1,37,16,36,38,113100,2,1,2,0,2,0,4,6,45,200,320,6,1,0.5666329
37,40,167.8,143.9,80,60,1,37,16,36,38,83100,2,1,-2,0,-2,0,4,6,45,201,244,6,1,0.6000293
37,40,167.8,143.9,80,60,1,37,16,36,38,143500,1,2,-2,0,-2,0,4,6,45,202,558,6,1,0.3833659
37,40,167.8,143.9,80,60,1,37,16,36,38,49100,2,2,2,0,-2,0,0,6,45,203,149,6,1,0.4166233
37,40,167.8,143.9,80,60,1,37,16,36,38,23100,2,1,2,0,2,0,4,6,45,204,64,6,1,0.4333492
37,40,167.8,143.9,80,60,1,37,16,36,38,76100,2,1,2,0,2,0,4,6,45,205,224,6,1,0.4166945
37,40,167.8,143.9,80,60,1,37,16,36,38,124100,2,1,-2,0,2,0,0,5,0,206,351,5,1,0.5667554
37,40,167.8,143.9,80,60,1,37,16,36,38,10100,2,2,-2,0,-2,0,4,6,45,207,34,6,1,0.4999955
37,40,167.8,143.9,80,60,1,37,16,36,38,94100,2,2,2,0,2,0,4,6,45,208,270,6,1,0.4668023
37,40,167.8,143.9,80,60,1,37,16,36,38,144100,2,1,2,0,2,0,4,5,0,209,400,5,1,0.6500986
37,40,167.8,143.9,80,60,1,37,16,36,38,84100,2,2,-2,0,-2,0,4,5,0,210,250,5,1,0.500147
37,40,167.8,143.9,80,60,1,37,16,36,38,117100,2,1,-2,0,-2,0,4,5,0,211,332,5,1,0.4834284
37,40,167.8,143.9,80,60,1,37,16,36,38,158100,2,2,-2,0,2,0,0,5,0,212,425,5,1,0.5833451
37,40,167.8,143.9,80,60,1,37,16,36,38,68500,1,2,-2,0,-2,0,4,6,45,213,482,6,1,0.5833325
37,40,167.8,143.9,80,60,1,37,16,36,38,32100,2,2,-2,0,2,0,0,6,45,214,97,6,1,0.4500175
37,40,167.8,143.9,80,60,1,37,16,36,38,77100,2,2,2,0,-2,0,0,5,0,215,229,5,1,0.6834076
37,40,167.8,143.9,80,60,1,37,16,36,38,130500,1,1,2,0,2,0,4,5,0,216,532,5,1,0.4834244
37,40,167.8,143.9,80,60,1,37,16,36,38,108100,2,2,-2,0,-2,0,4,5,0,217,306,5,1,0.4667104
37,40,167.8,143.9,80,60,1,37,16,36,38,110100,2,2,-2,0,2,0,0,5,0,218,313,5,1,0.5167368
37,40,167.8,143.9,80,60,1,37,16,36,38,33100,2,1,-2,0,-2,0,4,5,0,219,100,5,1,0.4340176
37,40,167.8,143.9,80,60,1,37,16,36,38,76100,2,2,-2,0,-2,0,4,5,0,220,226,5,1,0.4500414
37,40,167.8,143.9,80,60,1,37,16,36,38,77100,2,1,-2,0,2,0,0,6,45,221,231,6,1,0.5167798
37,40,167.8,143.9,80,60,1,37,16,36,38,41500,1,1,2,0,2,0,4,5,0,222,472,5,1,0.5666475
37,40,167.8,143.9,80,60,1,37,16,36,38,158100,2,1,2,0,-2,0,0,6,45,223,427,6,1,0.6666443
37,40,167.8,143.9,80,60,1,37,16,36,38,100100,2,2,2,0,2,0,4,5,0,224,286,5,1,0.600079
37,40,167.8,143.9,80,60,1,37,16,36,38,132500,1,1,2,0,-2,0,0,6,45,225,543,6,1,0.5667962
37,40,167.8,143.9,80,60,1,37,16,36,38,33100,2,2,2,0,-2,0,0,5,0,226,101,5,1,0.6666967
37,40,167.8,143.9,80,60,1,37,16,36,38,122100,2,2,-2,0,-2,0,4,6,45,227,346,6,1,0.6332981
37,40,167.8,143.9,80,60,1,37,16,36,38,72100,2,1,-2,0,2,0,0,6,45,228,215,6,1,0.6000206
37,40,167.8,143.9,80,60,1,37,16,36,38,68100,2,1,-2,0,-2,0,4,5,0,229,196,5,1,0.5000159
37,40,167.8,143.9,80,60,1,37,16,36,38,157100,2,2,2,0,2,0,4,5,0,230,422,5,1,0.4501325
37,40,167.8,143.9,80,60,1,37,16,36,38,86100,2,2,2,0,2,0,4,6,45,231,254,6,1,0.5166006
37,40,167.8,143.9,80,60,1,37,16,36,38,173500,1,1,2,0,-2,0,0,6,45,232,567,5,0,0.5333631
37,40,167.8,143.9,80,60,1,37,16,36,38,101500,1,2,-2,0,-2,0,4,6,45,233,494,6,1,0.5833141
37,40,167.8,143.9,80,60,1,37,16,36,38,93100,2,1,2,0,2,0,4,5,0,234,264,5,1,0.6667046
37,40,167.8,143.9,80,60,1,37,16,36,38,116100,2,2,-2,0,-2,0,4,5,0,235,330,5,1,0.7334216
37,40,167.8,143.9,80,60,1,37,16,36,38,63100,2,2,-2,0,2,0,0,6,45,236,185,6,1,0.5666888
37,40,167.8,143.9,80,60,1,37,16,36,38,22100,2,1,-2,0,-2,0,4,6,45,237,60,6,1,0.5501173
37,40,167.8,143.9,80,60,1,37,16,36,38,130500,1,1,2,0,-2,0,0,6,45,238,535,6,1,0.4500436
37,40,167.8,143.9,80,60,1,37,16,36,38,153100,2,1,2,0,-2,0,0,6,45,239,419,6,1,0.4334888
37,40,167.8,143.9,80,60,1,37,16,36,38,52100,2,1,2,0,2,0,4,5,0,240,152,5,1,0.5167975
37,40,167.8,143.9,80,60,1,37,16,36,38,36100,2,2,2,0,2,0,4,6,45,241,110,6,1,0.4500248
37,40,167.8,143.9,80,60,1,37,16,36,38,27100,2,1,-2,0,2,0,0,5,0,242,79,5,1,0.5167819
37,40,167.8,143.9,80,60,1,37,16,36,38,124100,2,2,2,0,2,0,4,5,0,243,350,5,1,0.5334592
37,40,167.8,143.9,80,60,1,37,16,36,38,11100,2,1,-2,0,2,0,0,5,0,244,39,5,1,0.5001195
37,40,167.8,143.9,80,60,1,37,16,36,38,41500,1,2,-2,0,-2,0,4,6,45,245,474,6,1,0.600015
37,40,167.8,143.9,80,60,1,37,16,36,38,106100,2,1,2,0,2,0,4,5,0,246,296,5,1,0.4834538
37,40,167.8,143.9,80,60,1,37,16,36,38,107100,2,2,2,0,2,0,4,6,45,247,302,6,1,0.4999733
37,40,167.8,143.9,80,60,1,37,16,36,38,103500,1,1,2,0,-2,0,0,6,45,248,499,6,1,0.5501343
37,40,167.8,143.9,80,60,1,37,16,36,38,43100,2,1,-2,0,2,0,0,6,45,249,135,6,1,0.5167895
37,40,167.8,143.9,80,60,1,37,16,36,38,120100,2,1,2,0,2,0,4,5,0,250,336,5,1,0.4834236
37,40,167.8,143.9,80,60,1,37,16,36,38,121100,2,1,-2,0,2,0,0,6,45,251,343,6,1,0.4834284
37,40,167.8,143.9,80,60,1,37,16,36,38,123500,1,2,-2,0,-2,0,4,6,45,252,522,6,1,0.6834234
37,40,167.8,143.9,80,60,1,37,16,36,38,98100,2,1,2,0,2,0,4,5,0,253,280,5,1,0.6834164
37,40,167.8,143.9,80,60,1,37,16,36,38,18500,1,1,2,0,2,0,4,6,45,254,444,6,1,0.4500168
37,40,167.8,143.9,80,60,1,37,16,36,38,131500,1,1,-2,0,-2,0,4,5,0,255,536,5,1,0.5504111
37,40,167.8,143.9,80,60,1,37,16,36,38,16100,2,2,2,0,2,0,4,6,45,256,46,6,1,0.5166626
37,40,167.8,143.9,80,60,1,37,16,36,38,26500,1,2,-2,0,2,0,0,5,0,257,457,5,1,0.5167492
37,40,167.8,143.9,80,60,1,37,16,36,38,69100,2,2,-2,0,-2,0,4,5,0,258,202,6,0,0.4508434
37,40,167.8,143.9,80,60,1,37,16,36,38,98100,2,2,-2,0,2,0,0,6,45,259,281,6,1,0.5666267
37,40,167.8,143.9,80,60,1,37,16,36,38,121500,1,2,-2,0,-2,0,4,5,0,260,518,5,1,0.533363
37,40,167.8,143.9,80,60,1,37,16,36,38,126100,2,1,-2,0,-2,0,4,5,0,261,356,5,1,0.534944
37,40,167.8,143.9,80,60,1,37,16,36,38,125500,1,2,2,0,-2,0,0,6,45,262,525,6,1,0.583452
37,40,167.8,143.9,80,60,1,37,16,36,38,109100,2,1,-2,0,-2,0,4,5,0,263,308,5,1,0.566804
37,40,167.8,143.9,80,60,1,37,16,36,38,138500,1,2,-2,0,-2,0,4,6,45,264,546,6,1,0.5834327
37,40,167.8,143.9,80,60,1,37,16,36,38,36100,2,1,-2,0,-2,0,4,6,45,265,108,6,1,0.5501235
37,40,167.8,143.9,80,60,1,37,16,36,38,73100,2,1,2,0,-2,0,0,5,0,266,219,5,1,0.549957
37,40,167.8,143.9,80,60,1,37,16,36,38,63100,2,1,2,0,-2,0,0,6,45,267,187,6,1,0.5499399
37,40,167.8,143.9,80,60,1,37,16,36,38,101100,2,2,-2,0,-2,0,4,5,0,268,290,5,1,0.483354
37,40,167.8,143.9,80,60,1,37,16,36,38,95100,2,1,2,0,-2,0,0,5,0,269,275,5,1,0.4682
37,40,167.8,143.9,80,60,1,37,16,36,38,26100,2,2,-2,0,-2,0,4,5,0,270,74,5,1,0.4501225
37,40,167.8,143.9,80,60,1,37,16,36,38,68100,2,2,2,0,2,0,4,6,45,271,198,6,1,0.4500249
37,40,167.8,143.9,80,60,1,37,16,36,38,144100,2,2,-2,0,2,0,0,6,45,272,401,6,1,0.4510403
37,40,167.8,143.9,80,60,1,37,16,36,38,141500,1,2,-2,0,-2,0,4,6,45,273,554,6,1,0.4833204
37,40,167.8,143.9,80,60,1,37,16,36,38,96100,2,2,2,0,2,0,4,5,0,274,278,5,1,0.4834605
37,40,167.8,143.9,80,60,1,37,16,36,38,161100,2,2,2,0,-2,0,0,5,0,275,429,5,1,0.6016623
37,40,167.8,143.9,80,60,1,37,16,36,38,105500,1,1,2,0,2,0,4,6,45,276,504,6,1,0.6666833
37,40,167.8,143.9,80,60,1,37,16,36,38,17100,2,2,-2,0,-2,0,4,5,0,277,50,5,1,0.483348
37,40,167.8,143.9,80,60,1,37,16,36,38,76100,2,1,2,0,-2,0,0,5,0,278,227,5,1,0.5667916
37,40,167.8,143.9,80,60,1,37,16,36,38,66100,2,1,2,0,2,0,4,5,0,279,192,5,1,0.51663
37,40,167.8,143.9,80,60,1,37,16,36,38,120100,2,2,-2,0,2,0,0,6,45,280,337,6,1,0.9333322
37,40,167.8,143.9,80,60,1,37,16,36,38,142100,2,1,2,0,2,0,4,6,45,281,392,6,1,0.4500464
37,40,167.8,143.9,80,60,1,37,16,36,38,98100,2,2,-2,0,-2,0,4,5,0,282,282,5,1,0.4500331
37,40,167.8,143.9,80,60,1,37,16,36,38,10100,2,2,-2,0,2,0,0,5,0,283,33,5,1,0.5166118
37,40,167.8,143.9,80,60,1,37,16,36,38,83100,2,2,2,0,2,0,4,5,0,284,246,5,1,0.4832785
37,40,167.8,143.9,80,60,1,37,16,36,38,12500,1,1,-2,0,2,0,0,6,45,285,443,6,1,0.5502281
37,40,167.8,143.9,80,60,1,37,16,36,38,36100,2,2,2,0,-2,0,0,5,0,286,109,5,1,0.6000224
37,40,167.8,143.9,80,60,1,37,16,36,38,161100,2,1,-2,0,2,0,0,5,0,287,431,5,1,0.6333443
37,40,167.8,143.9,80,60,1,37,16,36,38,143500,1,2,-2,0,2,0,0,6,45,288,557,6,1,0.6841872
37,40,167.8,143.9,80,60,1,37,16,36,38,83100,2,1,-2,0,2,0,0,6,45,289,247,6,1,0.5000212
37,40,167.8,143.9,80,60,1,37,16,36,38,71100,2,1,2,0,-2,0,0,6,45,290,211,6,1,0.4833074
37,40,167.8,143.9,80,60,1,37,16,36,38,92500,1,1,-2,0,-2,0,4,5,0,291,488,5,1,0.4999897
37,40,167.8,143.9,80,60,1,37,16,36,38,41500,1,1,2,0,-2,0,0,6,45,292,475,6,1,0.5334075
37,40,167.8,143.9,80,60,1,37,16,36,38,117100,2,2,2,0,-2,0,0,5,0,293,333,5,1,0.4833743
37,40,167.8,143.9,80,60,1,37,16,36,38,2100,2,2,2,0,2,0,4,5,0,294,6,5,1,0.4853036
37,40,167.8,143.9,80,60,1,37,16,36,38,69500,1,2,-2,0,2,0,0,5,0,295,485,5,1,0.4176271
37,40,167.8,143.9,80,60,1,37,16,36,38,115100,2,2,2,0,2,0,4,5,0,296,326,5,1,0.4666954
37,40,167.8,143.9,80,60,1,37,16,36,38,80100,2,2,2,0,2,0,4,6,45,297,238,6,1,0.4333427
37,40,167.8,143.9,80,60,1,37,16,36,38,18100,2,1,-2,0,-2,0,4,5,0,298,52,5,1,0.4834613
37,40,167.8,143.9,80,60,1,37,16,36,38,104500,1,2,2,0,-2,0,0,6,45,299,501,6,1,0.4843008
37,40,167.8,143.9,80,60,1,37,16,36,38,161100,2,2,2,0,2,0,4,6,45,300,430,6,1,0.4000298
37,40,167.8,143.9,80,60,1,37,16,36,38,48100,2,1,2,0,-2,0,0,6,45,301,147,6,1,0.4666088
37,40,167.8,143.9,80,60,1,37,16,36,38,87100,2,1,2,0,-2,0,0,6,45,302,259,6,1,0.4333958
37,40,167.8,143.9,80,60,1,37,16,36,38,22500,1,1,-2,0,-2,0,4,6,45,303,452,6,1,0.4339128
37,40,167.8,143.9,80,60,1,37,16,36,38,146100,2,1,-2,0,-2,0,4,6,45,304,404,6,1,0.4166767
37,40,167.8,143.9,80,60,1,37,16,36,38,79100,2,2,-2,0,-2,0,4,6,45,305,234,6,1,0.4833724
37,40,167.8,143.9,80,60,1,37,16,36,38,49100,2,1,-2,0,-2,0,4,5,0,306,148,5,1,0.5510749
37,40,167.8,143.9,80,60,1,37,16,36,38,35100,2,1,2,0,2,0,4,5,0,307,104,5,1,0.5167617
37,40,167.8,143.9,80,60,1,37,16,36,38,12500,1,1,-2,0,-2,0,4,6,45,308,440,6,1,0.5667961
37,40,167.8,143.9,80,60,1,37,16,36,38,131500,1,2,2,0,-2,0,0,6,45,309,537,6,1,0.4000305
37,40,167.8,143.9,80,60,1,37,16,36,38,7100,2,2,2,0,2,0,4,5,0,310,22,5,1,0.6664643
37,40,167.8,143.9,80,60,1,37,16,36,38,146100,2,2,2,0,2,0,4,5,0,311,406,5,1,0.5001185
37,40,167.8,143.9,80,60,1,37,16,36,38,42100,2,2,-2,0,2,0,0,5,0,312,129,5,1,0.4834336
37,40,167.8,143.9,80,60,1,37,16,36,38,21500,1,2,-2,0,-2,0,4,6,45,313,450,6,1,0.7833446
37,40,167.8,143.9,80,60,1,37,16,36,38,157100,2,2,2,0,-2,0,0,6,45,314,421,6,1,0.5166836
37,40,167.8,143.9,80,60,1,37,16,36,38,37100,2,1,2,0,-2,0,0,6,45,315,115,6,1,0.5168224
37,40,167.8,143.9,80,60,1,37,16,36,38,121500,1,2,-2,0,2,0,0,5,0,316,517,5,1,0.5333505
37,40,167.8,143.9,80,60,1,37,16,36,38,79100,2,2,-2,0,2,0,0,5,0,317,233,5,1,0.5001145
37,40,167.8,143.9,80,60,1,37,16,36,38,25100,2,1,-2,0,2,0,0,5,0,318,71,5,1,0.4999413
37,40,167.8,143.9,80,60,1,37,16,36,38,125500,1,2,2,0,2,0,4,6,45,319,526,6,1,0.5350571
37,40,167.8,143.9,80,60,1,37,16,36,38,65100,2,2,2,0,-2,0,0,6,45,320,189,6,1,0.6666967
37,40,167.8,143.9,80,60,1,37,16,36,38,28100,2,2,-2,0,2,0,0,5,0,321,81,5,1,0.5000171
37,40,167.8,143.9,80,60,1,37,16,36,38,143100,2,1,-2,0,-2,0,4,6,45,322,396,6,1,0.5834667
37,40,167.8,143.9,80,60,1,37,16,36,38,4100,2,2,2,0,-2,0,0,5,0,323,13,5,1,0.6166871
37,40,167.8,143.9,80,60,1,37,16,36,38,73100,2,2,-2,0,-2,0,4,5,0,324,218,5,1,0.5500477
37,40,167.8,143.9,80,60,1,37,16,36,38,173500,1,2,-2,0,2,0,0,6,45,325,565,6,1,0.500128
37,40,167.8,143.9,80,60,1,37,16,36,38,9100,2,2,2,0,-2,0,0,5,0,326,29,5,1,0.5500335
37,40,167.8,143.9,80,60,1,37,16,36,38,16100,2,1,-2,0,2,0,0,5,0,327,47,5,1,0.6167538
37,40,167.8,143.9,80,60,1,37,16,36,38,18500,1,2,-2,0,-2,0,4,5,0,328,446,5,1,0.4668007
37,40,167.8,143.9,80,60,1,37,16,36,38,60100,2,2,2,0,-2,0,0,6,45,329,173,6,1,0.6000131
37,40,167.8,143.9,80,60,1,37,16,36,38,105100,2,1,-2,0,2,0,0,6,45,330,295,6,1,0.5182255
37,40,167.8,143.9,80,60,1,37,16,36,38,141100,2,1,-2,0,2,0,0,6,45,331,391,6,1,0.4848546
37,40,167.8,143.9,80,60,1,37,16,36,38,63500,1,2,2,0,-2,0,0,6,45,332,477,6,1,0.5501129
37,40,167.8,143.9,80,60,1,37,16,36,38,1100,2,1,2,0,-2,0,0,6,45,333,3,6,1,0.4501249
37,40,167.8,143.9,80,60,1,37,16,36,38,152100,2,2,2,0,-2,0,0,6,45,334,413,6,1,0.4500466
37,40,167.8,143.9,80,60,1,37,16,36,38,60100,2,2,2,0,2,0,4,5,0,335,174,5,1,0.5168031
37,40,167.8,143.9,80,60,1,37,16,36,38,81100,2,2,-2,0,2,0,0,5,0,336,241,5,1,0.6334326
37,40,167.8,143.9,80,60,1,37,16,36,38,48100,2,1,2,0,2,0,4,5,0,337,144,5,1,0.5001238
37,40,167.8,143.9,80,60,1,37,16,36,38,136100,2,1,-2,0,2,0,0,5,0,338,383,5,1,0.6021475
37,40,167.8,143.9,80,60,1,37,16,36,38,87100,2,2,-2,0,-2,0,4,5,0,339,258,5,1,0.5500967
37,40,167.8,143.9,80,60,1,37,16,36,38,121100,2,1,-2,0,-2,0,4,6,45,340,340,6,1,0.5500289
37,40,167.8,143.9,80,60,1,37,16,36,38,122100,2,1,2,0,2,0,4,6,45,341,344,6,1,0.4501319
37,40,167.8,143.9,80,60,1,37,16,36,38,49100,2,1,-2,0,2,0,0,5,0,342,151,5,1,0.5333584
37,40,167.8,143.9,80,60,1,37,16,36,38,161100,2,1,-2,0,-2,0,4,6,45,343,428,6,1,0.5530059
37,40,167.8,143.9,80,60,1,37,16,36,38,21500,1,1,2,0,2,0,4,6,45,344,448,6,1,0.5500341
37,40,167.8,143.9,80,60,1,37,16,36,38,75100,2,2,2,0,-2,0,0,6,45,345,221,6,1,0.6834464
37,40,167.8,143.9,80,60,1,37,16,36,38,80100,2,2,2,0,-2,0,0,6,45,346,237,6,1,0.5500037
37,40,167.8,143.9,80,60,1,37,16,36,38,111100,2,1,-2,0,-2,0,4,6,45,347,316,6,1,0.7518425
37,40,167.8,143.9,80,60,1,37,16,36,38,144100,2,1,2,0,-2,0,0,5,0,348,403,5,1,0.700121
37,40,167.8,143.9,80,60,1,37,16,36,38,40100,2,2,-2,0,-2,0,4,6,45,349,122,6,1,0.5666861
37,40,167.8,143.9,80,60,1,37,16,36,38,66100,2,2,-2,0,-2,0,4,6,45,350,194,6,1,0.4168039
37,40,167.8,143.9,80,60,1,37,16,36,38,63500,1,1,-2,0,-2,0,4,5,0,351,476,5,1,0.4668004
37,40,167.8,143.9,80,60,1,37,16,36,38,157100,2,1,-2,0,2,0,0,6,45,352,423,6,1,0.4666831
37,40,167.8,143.9,80,60,1,37,16,36,38,126100,2,1,-2,0,2,0,0,5,0,353,359,5,1,0.4667816
37,40,167.8,143.9,80,60,1,37,16,36,38,38100,2,2,2,0,2,0,4,5,0,354,118,5,1,0.4334352
37,40,167.8,143.9,80,60,1,37,16,36,38,9100,2,2,2,0,2,0,4,6,45,355,30,6,1,0.5167484
37,40,167.8,143.9,80,60,1,37,16,36,38,141100,2,1,-2,0,-2,0,4,6,45,356,388,5,0,0.5833591
37,40,167.8,143.9,80,60,1,37,16,36,38,43100,2,2,2,0,2,0,4,6,45,357,134,6,1,0.5000265
37,40,167.8,143.9,80,60,1,37,16,36,38,121100,2,2,2,0,2,0,4,5,0,358,342,5,1,0.5168364
37,40,167.8,143.9,80,60,1,37,16,36,38,117100,2,1,-2,0,2,0,0,5,0,359,335,5,1,0.4181451
37,40,167.8,143.9,80,60,1,37,16,36,38,140500,1,2,2,0,2,0,4,6,45,360,550,6,1,0.5667768
37,40,167.8,143.9,80,60,1,37,16,36,38,8100,2,2,-2,0,2,0,0,6,45,361,25,6,1,1.1832985
37,40,167.8,143.9,80,60,1,37,16,36,38,43100,2,2,2,0,-2,0,0,5,0,362,133,5,1,0.5167195
37,40,167.8,143.9,80,60,1,37,16,36,38,8100,2,2,-2,0,-2,0,4,6,45,363,26,6,1,0.4507789
37,40,167.8,143.9,80,60,1,37,16,36,38,57100,2,1,-2,0,-2,0,4,6,45,364,164,6,1,0.4667986
37,40,167.8,143.9,80,60,1,37,16,36,38,23100,2,2,-2,0,-2,0,4,6,45,365,66,6,1,0.516587
37,40,167.8,143.9,80,60,1,37,16,36,38,18500,1,2,-2,0,2,0,0,5,0,366,445,5,1,0.5178259
37,40,167.8,143.9,80,60,1,37,16,36,38,109100,2,2,2,0,-2,0,0,6,45,367,309,6,1,0.4666269
37,40,167.8,143.9,80,60,1,37,16,36,38,10100,2,1,2,0,-2,0,0,5,0,368,35,5,1,0.8166098
37,40,167.8,143.9,80,60,1,37,16,36,38,143100,2,2,2,0,-2,0,0,6,45,369,397,6,1,0.5166454
37,40,167.8,143.9,80,60,1,37,16,36,38,60100,2,1,-2,0,-2,0,4,5,0,370,172,5,1,0.4833501
37,40,167.8,143.9,80,60,1,37,16,36,38,63100,2,1,2,0,2,0,4,5,0,371,184,5,1,0.5332935
37,40,167.8,143.9,80,60,1,37,16,36,38,23100,2,1,2,0,-2,0,0,5,0,372,67,5,1,0.516798
37,40,167.8,143.9,80,60,1,37,16,36,38,20100,2,1,2,0,-2,0,0,5,0,373,59,5,1,0.4500052
37,40,167.8,143.9,80,60,1,37,16,36,38,144100,2,2,-2,0,-2,0,4,6,45,374,402,6,1,0.5332746
37,40,167.8,143.9,80,60,1,37,16,36,38,20100,2,2,-2,0,-2,0,4,6,45,375,58,6,1,0.4500241
37,40,167.8,143.9,80,60,1,37,16,36,38,42100,2,1,2,0,2,0,4,6,45,376,128,6,1,0.5500051
37,40,167.8,143.9,80,60,1,37,16,36,38,63100,2,2,-2,0,-2,0,4,6,45,377,186,6,1,0.5168028
37,40,167.8,143.9,80,60,1,37,16,36,38,71100,2,2,-2,0,2,0,0,6,45,378,209,6,1,0.5333515
37,40,167.8,143.9,80,60,1,37,16,36,38,70100,2,2,2,0,-2,0,0,5,0,379,205,5,1,0.5333638
37,40,167.8,143.9,80,60,1,37,16,36,38,110100,2,2,-2,0,-2,0,4,5,0,380,314,5,1,0.5500124
37,40,167.8,143.9,80,60,1,37,16,36,38,29100,2,2,2,0,-2,0,0,5,0,381,85,5,1,0.5013325
37,40,167.8,143.9,80,60,1,37,16,36,38,127100,2,2,-2,0,-2,0,4,6,45,382,362,6,1,0.4999706
37,40,167.8,143.9,80,60,1,37,16,36,38,121100,2,2,2,0,-2,0,0,6,45,383,341,6,1,0.4833418
37,40,167.8,143.9,80,60,1,37,16,36,38,131100,2,1,2,0,2,0,4,5,0,384,368,5,1,0.5666378
37,40,167.8,143.9,80,60,1,37,16,36,38,26100,2,1,2,0,2,0,4,5,0,385,72,5,1,0.5500015
37,40,167.8,143.9,80,60,1,37,16,36,38,105100,2,1,-2,0,-2,0,4,5,0,386,292,5,1,0.5001301
37,40,167.8,143.9,80,60,1,37,16,36,38,138500,1,1,2,0,2,0,4,6,45,387,544,6,1,0.61671
37,40,167.8,143.9,80,60,1,37,16,36,38,2100,2,2,2,0,-2,0,0,5,0,388,5,5,1,0.6666831
37,40,167.8,143.9,80,60,1,37,16,36,38,140500,1,2,2,0,-2,0,0,5,0,389,549,5,1,0.7347858
37,40,167.8,143.9,80,60,1,37,16,36,38,101100,2,2,-2,0,2,0,0,6,45,390,289,6,1,0.9000496
37,40,167.8,143.9,80,60,1,37,16,36,38,131100,2,2,-2,0,-2,0,4,5,0,391,370,5,1,0.6333564
37,40,167.8,143.9,80,60,1,37,16,36,38,131100,2,1,2,0,-2,0,0,6,45,392,371,6,1,1.1501215
37,40,167.8,143.9,80,60,1,37,16,36,38,28100,2,1,2,0,2,0,4,5,0,393,80,5,1,0.5000455
37,40,167.8,143.9,80,60,1,37,16,36,38,30100,2,1,2,0,-2,0,0,6,45,394,91,6,1,0.533373
37,40,167.8,143.9,80,60,1,37,16,36,38,105500,1,1,2,0,-2,0,0,5,0,395,507,5,1,0.5167531
37,40,167.8,143.9,80,60,1,37,16,36,38,30100,2,2,-2,0,-2,0,4,6,45,396,90,6,1,0.483345
37,40,167.8,143.9,80,60,1,37,16,36,38,18100,2,2,2,0,-2,0,0,5,0,397,53,5,1,0.5666534
37,40,167.8,143.9,80,60,1,37,16,36,38,125100,2,1,2,0,2,0,4,5,0,398,352,5,1,0.5503156
37,40,167.8,143.9,80,60,1,37,16,36,38,128500,1,1,2,0,-2,0,0,6,45,399,531,6,1,0.5834219
37,40,167.8,143.9,80,60,1,37,16,36,38,48100,2,2,-2,0,-2,0,4,6,45,400,146,6,1,0.5334182
37,40,167.8,143.9,80,60,1,37,16,36,38,30100,2,2,-2,0,2,0,0,6,45,401,89,6,1,0.4843728
37,40,167.8,143.9,80,60,1,37,16,36,38,127100,2,1,2,0,-2,0,0,5,0,402,363,5,1,0.5166873
37,40,167.8,143.9,80,60,1,37,16,36,38,58100,2,1,2,0,2,0,4,5,0,403,168,5,1,0.6000403
37,40,167.8,143.9,80,60,1,37,16,36,38,93100,2,2,-2,0,-2,0,4,5,0,404,266,5,1,0.5500178
37,40,167.8,143.9,80,60,1,37,16,36,38,4500,1,1,2,0,-2,0,0,6,45,405,439,6,1,0.5676066
37,40,167.8,143.9,80,60,1,37,16,36,38,77100,2,1,-2,0,-2,0,4,5,0,406,228,5,1,0.5668133
37,40,167.8,143.9,80,60,1,37,16,36,38,70100,2,1,-2,0,-2,0,4,6,45,407,204,6,1,0.4833777
37,40,167.8,143.9,80,60,1,37,16,36,38,69100,2,1,2,0,-2,0,0,5,0,408,203,5,1,0.5000118
37,40,167.8,143.9,80,60,1,37,16,36,38,150100,2,1,2,0,-2,0,0,5,0,409,411,5,1,0.4505097
37,40,167.8,143.9,80,60,1,37,16,36,38,32100,2,1,2,0,-2,0,0,5,0,410,99,5,1,0.4833729
37,40,167.8,143.9,80,60,1,37,16,36,38,3100,2,1,2,0,-2,0,0,5,0,411,11,5,1,0.4021522
37,40,167.8,143.9,80,60,1,37,16,36,38,72100,2,2,2,0,-2,0,0,5,0,412,213,5,1,0.4166896
37,40,167.8,143.9,80,60,1,37,16,36,38,152100,2,2,2,0,2,0,4,6,45,413,414,6,1,0.4518364
37,40,167.8,143.9,80,60,1,37,16,36,38,81100,2,1,2,0,2,0,4,5,0,414,240,5,1,0.5500205
37,40,167.8,143.9,80,60,1,37,16,36,38,47100,2,2,2,0,2,0,4,6,45,415,142,6,1,0.5333695
37,40,167.8,143.9,80,60,1,37,16,36,38,115100,2,1,-2,0,2,0,0,5,0,416,327,5,1,0.5001045
37,40,167.8,143.9,80,60,1,37,16,36,38,65100,2,1,-2,0,-2,0,4,5,0,417,188,5,1,0.5167781
37,40,167.8,143.9,80,60,1,37,16,36,38,22100,2,2,2,0,-2,0,0,6,45,418,61,6,1,0.516698
37,40,167.8,143.9,80,60,1,37,16,36,38,146100,2,2,2,0,-2,0,0,5,0,419,405,5,1,0.5334557
37,40,167.8,143.9,80,60,1,37,16,36,38,103500,1,2,-2,0,-2,0,4,6,45,420,498,6,1,0.5018343
37,40,167.8,143.9,80,60,1,37,16,36,38,150100,2,2,-2,0,2,0,0,5,0,421,409,5,1,0.5341554
37,40,167.8,143.9,80,60,1,37,16,36,38,123500,1,2,-2,0,2,0,0,6,45,422,521,6,1,0.5500087
37,40,167.8,143.9,80,60,1,37,16,36,38,29500,1,2,-2,0,-2,0,4,6,45,423,462,6,1,0.4999863
37,40,167.8,143.9,80,60,1,37,16,36,38,108500,1,2,-2,0,-2,0,4,5,0,424,510,5,1,0.4347344
37,40,167.8,143.9,80,60,1,37,16,36,38,29100,2,2,2,0,2,0,4,5,0,425,86,5,1,0.4999573
37,40,167.8,143.9,80,60,1,37,16,36,38,132100,2,2,2,0,2,0,4,5,0,426,374,5,1,0.4500179
37,40,167.8,143.9,80,60,1,37,16,36,38,143500,1,1,2,0,2,0,4,6,45,427,556,6,1,0.4333853
37,40,167.8,143.9,80,60,1,37,16,36,38,56100,2,2,-2,0,2,0,0,6,45,428,161,6,1,0.4334175
37,40,167.8,143.9,80,60,1,37,16,36,38,157100,2,1,-2,0,-2,0,4,6,45,429,420,6,1,0.4666729
37,40,167.8,143.9,80,60,1,37,16,36,38,83100,2,2,2,0,-2,0,0,6,45,430,245,6,1,0.5500283
37,40,167.8,143.9,80,60,1,37,16,36,38,22500,1,2,2,0,-2,0,0,6,45,431,453,6,1,0.383433
37,40,167.8,143.9,80,60,1,37,16,36,38,127100,2,2,-2,0,2,0,0,6,45,432,361,6,1,0.4334693
37,40,167.8,143.9,80,60,1,37,16,36,38,35100,2,2,-2,0,2,0,0,6,45,433,105,6,1,0.4667033
37,40,167.8,143.9,80,60,1,37,16,36,38,113100,2,2,-2,0,2,0,0,6,45,434,321,6,1,0.383408
37,40,167.8,143.9,80,60,1,37,16,36,38,9100,2,1,-2,0,2,0,0,5,0,435,31,5,1,0.4168034
37,40,167.8,143.9,80,60,1,37,16,36,38,96100,2,1,-2,0,2,0,0,5,0,436,279,5,1,0.4694876
37,40,167.8,143.9,80,60,1,37,16,36,38,101500,1,2,-2,0,2,0,0,5,0,437,493,5,1,0.366747
37,40,167.8,143.9,80,60,1,37,16,36,38,80100,2,1,-2,0,2,0,0,6,45,438,239,5,0,0.3834334
37,40,167.8,143.9,80,60,1,37,16,36,38,94100,2,1,-2,0,2,0,0,5,0,439,271,5,1,0.5000442
37,40,167.8,143.9,80,60,1,37,16,36,38,62100,2,2,2,0,-2,0,0,6,45,440,181,6,1,0.5001088
37,40,167.8,143.9,80,60,1,37,16,36,38,116100,2,1,2,0,-2,0,0,5,0,441,331,5,1,0.5333837
37,40,167.8,143.9,80,60,1,37,16,36,38,32100,2,2,-2,0,-2,0,4,6,45,442,98,6,1,0.53334
37,40,167.8,143.9,80,60,1,37,16,36,38,94100,2,1,-2,0,-2,0,4,6,45,443,268,6,1,0.5000134
37,40,167.8,143.9,80,60,1,37,16,36,38,138500,1,1,2,0,-2,0,0,6,45,444,547,6,1,0.5167869
37,40,167.8,143.9,80,60,1,37,16,36,38,105100,2,2,2,0,-2,0,0,6,45,445,293,6,1,0.4834685
37,40,167.8,143.9,80,60,1,37,16,36,38,52100,2,1,2,0,-2,0,0,6,45,446,155,6,1,0.5167987
37,40,167.8,143.9,80,60,1,37,16,36,38,72100,2,2,2,0,2,0,4,6,45,447,214,6,1,0.5334557
37,40,167.8,143.9,80,60,1,37,16,36,38,138500,1,2,-2,0,2,0,0,5,0,448,545,5,1,0.5166811
37,40,167.8,143.9,80,60,1,37,16,36,38,92500,1,2,2,0,-2,0,0,6,45,449,489,6,1,0.4666523
37,40,167.8,143.9,80,60,1,37,16,36,38,95100,2,2,-2,0,2,0,0,6,45,450,273,6,1,0.5000244
37,40,167.8,143.9,80,60,1,37,16,36,38,106100,2,2,-2,0,-2,0,4,5,0,451,298,5,1,0.5000207
37,40,167.8,143.9,80,60,1,37,16,36,38,100100,2,1,-2,0,2,0,0,6,45,452,287,6,1,0.5001171
37,40,167.8,143.9,80,60,1,37,16,36,38,45100,2,1,2,0,2,0,4,5,0,453,136,5,1,0.9000099
37,40,167.8,143.9,80,60,1,37,16,36,38,96100,2,2,2,0,-2,0,0,5,0,454,277,5,1,0.6999935
37,40,167.8,143.9,80,60,1,37,16,36,38,37100,2,1,2,0,2,0,4,5,0,455,112,5,1,0.6500225
37,40,167.8,143.9,80,60,1,37,16,36,38,117500,1,2,2,0,2,0,4,6,45,456,514,6,1,0.6001056
37,40,167.8,143.9,80,60,1,37,16,36,38,104500,1,1,-2,0,2,0,0,6,45,457,503,6,1,0.5017769
37,40,167.8,143.9,80,60,1,37,16,36,38,7100,2,2,2,0,-2,0,0,5,0,458,21,5,1,0.6000176
37,40,167.8,143.9,80,60,1,37,16,36,38,12500,1,2,2,0,-2,0,0,6,45,459,441,6,1,0.5500262
37,40,167.8,143.9,80,60,1,37,16,36,38,41100,2,1,-2,0,-2,0,4,5,0,460,124,5,1,0.5167053
37,40,167.8,143.9,80,60,1,37,16,36,38,91100,2,1,-2,0,-2,0,4,5,0,461,260,5,1,0.4500236
37,40,167.8,143.9,80,60,1,37,16,36,38,86100,2,1,-2,0,-2,0,4,6,45,462,252,6,1,0.4834156
37,40,167.8,143.9,80,60,1,37,16,36,38,150100,2,2,-2,0,-2,0,4,6,45,463,410,6,1,0.383403
37,40,167.8,143.9,80,60,1,37,16,36,38,41500,1,2,-2,0,2,0,0,5,0,464,473,5,1,0.6501031
37,40,167.8,143.9,80,60,1,37,16,36,38,33500,1,2,-2,0,2,0,0,5,0,465,469,5,1,0.5011262
37,40,167.8,143.9,80,60,1,37,16,36,38,11100,2,2,2,0,-2,0,0,6,45,466,37,6,1,0.5332969
37,40,167.8,143.9,80,60,1,37,16,36,38,27100,2,2,2,0,-2,0,0,5,0,467,77,5,1,0.6166477
37,40,167.8,143.9,80,60,1,37,16,36,38,62100,2,1,-2,0,-2,0,4,6,45,468,180,6,1,0.5181276
37,40,167.8,143.9,80,60,1,37,16,36,38,33500,1,1,2,0,2,0,4,6,45,469,468,6,1,0.5166368
37,40,167.8,143.9,80,60,1,37,16,36,38,84100,2,1,2,0,-2,0,0,5,0,470,251,5,1,0.5680556
37,40,167.8,143.9,80,60,1,37,16,36,38,77100,2,2,2,0,2,0,4,5,0,471,230,5,1,0.5000336
37,40,167.8,143.9,80,60,1,37,16,36,38,8100,2,1,2,0,-2,0,0,5,0,472,27,5,1,0.450112
37,40,167.8,143.9,80,60,1,37,16,36,38,108500,1,2,-2,0,2,0,0,6,45,473,509,6,1,0.4168019
37,40,167.8,143.9,80,60,1,37,16,36,38,87100,2,1,2,0,2,0,4,6,45,474,256,6,1,0.5000244
37,40,167.8,143.9,80,60,1,37,16,36,38,2100,2,1,-2,0,-2,0,4,5,0,475,4,6,0,0.7998946
37,40,167.8,143.9,80,60,1,37,16,36,38,16100,2,2,2,0,-2,0,0,6,45,476,45,6,1,0.6006504
37,40,167.8,143.9,80,60,1,37,16,36,38,13100,2,1,2,0,-2,0,0,6,45,477,43,6,1,0.5683054
37,40,167.8,143.9,80,60,1,37,16,36,38,162100,2,2,-2,0,2,0,0,5,0,478,433,5,1,0.5999573
37,40,167.8,143.9,80,60,1,37,16,36,38,68500,1,2,-2,0,2,0,0,5,0,479,481,5,1,0.5499844
37,40,167.8,143.9,80,60,1,37,16,36,38,80100,2,1,-2,0,-2,0,4,6,45,480,236,6,1,0.8667089
37,40,167.8,143.9,80,60,1,37,16,36,38,128500,1,2,-2,0,2,0,0,6,45,481,529,6,1,0.5832813
37,40,167.8,143.9,80,60,1,37,16,36,38,55100,2,2,2,0,2,0,4,5,0,482,158,5,1,0.7000069
37,40,167.8,143.9,80,60,1,37,16,36,38,152100,2,1,-2,0,-2,0,4,6,45,483,412,6,1,0.5667053
37,40,167.8,143.9,80,60,1,37,16,36,38,111100,2,2,2,0,2,0,4,5,0,484,318,5,1,0.5000275
37,40,167.8,143.9,80,60,1,37,16,36,38,4500,1,2,-2,0,2,0,0,5,0,485,437,5,1,0.5500417
37,40,167.8,143.9,80,60,1,37,16,36,38,141500,1,2,-2,0,2,0,0,5,0,486,553,5,1,0.5167846
37,40,167.8,143.9,80,60,1,37,16,36,38,172500,1,1,-2,0,-2,0,4,5,0,487,560,5,1,0.5333387
37,40,167.8,143.9,80,60,1,37,16,36,38,49100,2,2,2,0,2,0,4,5,0,488,150,5,1,0.5334615
37,40,167.8,143.9,80,60,1,37,16,36,38,1100,2,2,-2,0,-2,0,4,5,0,489,2,5,1,0.467921
37,40,167.8,143.9,80,60,1,37,16,36,38,108100,2,1,2,0,2,0,4,6,45,490,304,6,1,0.5671971
37,40,167.8,143.9,80,60,1,37,16,36,38,91100,2,2,2,0,2,0,4,5,0,491,262,5,1,0.433308
37,40,167.8,143.9,80,60,1,37,16,36,38,48100,2,2,-2,0,2,0,0,5,0,492,145,5,1,0.4499612
37,40,167.8,143.9,80,60,1,37,16,36,38,71100,2,2,-2,0,-2,0,4,5,0,493,210,5,1,0.4666758
37,40,167.8,143.9,80,60,1,37,16,36,38,45100,2,1,2,0,-2,0,0,5,0,494,139,5,1,0.4511981
37,40,167.8,143.9,80,60,1,37,16,36,38,42100,2,1,2,0,-2,0,0,6,45,495,131,6,1,0.5834492
37,40,167.8,143.9,80,60,1,37,16,36,38,138100,2,2,-2,0,-2,0,4,5,0,496,386,5,1,0.3833619
37,40,167.8,143.9,80,60,1,37,16,36,38,4100,2,1,-2,0,2,0,0,5,0,497,15,5,1,0.5000309
37,40,167.8,143.9,80,60,1,37,16,36,38,136100,2,2,2,0,-2,0,0,6,45,498,381,6,1,0.5333475
37,40,167.8,143.9,80,60,1,37,16,36,38,117500,1,1,-2,0,-2,0,4,6,45,499,512,6,1,0.5667999
37,40,167.8,143.9,80,60,1,37,16,36,38,10100,2,1,2,0,2,0,4,5,0,500,32,5,1,0.4845881
37,40,167.8,143.9,80,60,1,37,16,36,38,33500,1,1,2,0,-2,0,0,5,0,501,471,5,1,0.4169023
37,40,167.8,143.9,80,60,1,37,16,36,38,105100,2,2,2,0,2,0,4,5,0,502,294,5,1,0.4667145
37,40,167.8,143.9,80,60,1,37,16,36,38,131500,1,1,-2,0,2,0,0,6,45,503,539,6,1,0.4833347
37,40,167.8,143.9,80,60,1,37,16,36,38,142100,2,2,-2,0,-2,0,4,6,45,504,394,5,0,0.5166925
37,40,167.8,143.9,80,60,1,37,16,36,38,22500,1,2,2,0,2,0,4,5,0,505,454,5,1,0.533503
37,40,167.8,143.9,80,60,1,37,16,36,38,146100,2,1,-2,0,2,0,0,5,0,506,407,5,1,0.4833707
37,40,167.8,143.9,80,60,1,37,16,36,38,58100,2,2,-2,0,2,0,0,5,0,507,169,5,1,0.4666937
37,40,167.8,143.9,80,60,1,37,16,36,38,56100,2,1,2,0,-2,0,0,6,45,508,163,6,1,0.4505392
37,40,167.8,143.9,80,60,1,37,16,36,38,113100,2,1,2,0,-2,0,0,6,45,509,323,6,1,0.416643
37,40,167.8,143.9,80,60,1,37,16,36,38,65100,2,1,-2,0,2,0,0,6,45,510,191,6,1,0.4334603
37,40,167.8,143.9,80,60,1,37,16,36,38,70100,2,2,2,0,2,0,4,5,0,511,206,5,1,0.5333591
37,40,167.8,143.9,80,60,1,37,16,36,38,108500,1,1,2,0,2,0,4,5,0,512,508,5,1,0.4501374
37,40,167.8,143.9,80,60,1,37,16,36,38,132100,2,1,-2,0,-2,0,4,6,45,513,372,6,1,0.5501257
37,40,167.8,143.9,80,60,1,37,16,36,38,58100,2,1,2,0,-2,0,0,5,0,514,171,5,1,0.6334087
37,40,167.8,143.9,80,60,1,37,16,36,38,43100,2,1,-2,0,-2,0,4,6,45,515,132,6,1,0.5834059
37,40,167.8,143.9,80,60,1,37,16,36,38,132500,1,2,-2,0,2,0,0,6,45,516,541,6,1,0.5334683
37,40,167.8,143.9,80,60,1,37,16,36,38,71100,2,1,2,0,2,0,4,5,0,517,208,5,1,0.583411
37,40,167.8,143.9,80,60,1,37,16,36,38,108100,2,1,2,0,-2,0,0,6,45,518,307,6,1,0.4511684
37,40,167.8,143.9,80,60,1,37,16,36,38,95100,2,1,2,0,2,0,4,6,45,519,272,5,0,0.5501138
37,40,167.8,143.9,80,60,1,37,16,36,38,66100,2,1,2,0,-2,0,0,5,0,520,195,5,1,0.6334258
37,40,167.8,143.9,80,60,1,37,16,36,38,105500,1,2,-2,0,2,0,0,6,45,521,505,6,1,0.6333605
37,40,167.8,143.9,80,60,1,37,16,36,38,8100,2,1,2,0,2,0,4,5,0,522,24,5,1,0.5834392
37,40,167.8,143.9,80,60,1,37,16,36,38,55100,2,1,-2,0,-2,0,4,5,0,523,156,5,1,0.5667705
37,40,167.8,143.9,80,60,1,37,16,36,38,42100,2,2,-2,0,-2,0,4,5,0,524,130,5,1,0.5335003
37,40,167.8,143.9,80,60,1,37,16,36,38,68100,2,2,2,0,-2,0,0,5,0,525,197,5,1,0.6667817
37,40,167.8,143.9,80,60,1,37,16,36,38,126100,2,2,2,0,-2,0,0,5,0,526,357,5,1,0.650099
37,40,167.8,143.9,80,60,1,37,16,36,38,17100,2,1,2,0,-2,0,0,5,0,527,51,5,1,0.6001225
37,40,167.8,143.9,80,60,1,37,16,36,38,58100,2,2,-2,0,-2,0,4,5,0,528,170,5,1,0.5834312
37,40,167.8,143.9,80,60,1,37,16,36,38,101500,1,1,2,0,-2,0,0,6,45,529,495,5,0,0.4839212
37,40,167.8,143.9,80,60,1,37,16,36,38,63500,1,2,2,0,2,0,4,5,0,530,478,5,1,0.6000403
37,40,167.8,143.9,80,60,1,37,16,36,38,75100,2,2,2,0,2,0,4,6,45,531,222,6,1,0.7833088
37,40,167.8,143.9,80,60,1,37,16,36,38,52100,2,2,-2,0,2,0,0,6,45,532,153,6,1,0.6000789
37,40,167.8,143.9,80,60,1,37,16,36,38,150100,2,1,2,0,2,0,4,6,45,533,408,6,1,0.6167493
37,40,167.8,143.9,80,60,1,37,16,36,38,3100,2,2,-2,0,-2,0,4,5,0,534,10,5,1,0.5166798
37,40,167.8,143.9,80,60,1,37,16,36,38,105500,1,2,-2,0,-2,0,4,6,45,535,506,5,0,0.566693
37,40,167.8,143.9,80,60,1,37,16,36,38,110100,2,1,2,0,-2,0,0,6,45,536,315,6,1,0.5833553
37,40,167.8,143.9,80,60,1,37,16,36,38,124100,2,1,-2,0,-2,0,4,6,45,537,348,6,1,0.4334442
37,40,167.8,143.9,80,60,1,37,16,36,38,101100,2,1,2,0,-2,0,0,6,45,538,291,6,1,0.5000218
37,40,167.8,143.9,80,60,1,37,16,36,38,32100,2,1,2,0,2,0,4,5,0,539,96,5,1,0.5667893
37,40,167.8,143.9,80,60,1,37,16,36,38,47100,2,1,-2,0,2,0,0,5,0,540,143,5,1,0.6333375
37,40,167.8,143.9,80,60,1,37,16,36,38,113100,2,2,-2,0,-2,0,4,6,45,541,322,6,1,0.5834312
37,40,167.8,143.9,80,60,1,37,16,36,38,33500,1,2,-2,0,-2,0,4,6,45,542,470,6,1,0.4833514
37,40,167.8,143.9,80,60,1,37,16,36,38,132100,2,1,-2,0,2,0,0,6,45,543,375,6,1,0.5166887
37,40,167.8,143.9,80,60,1,37,16,36,38,37100,2,2,-2,0,-2,0,4,6,45,544,114,6,1,0.5333568
37,40,167.8,143.9,80,60,1,37,16,36,38,109100,2,2,2,0,2,0,4,6,45,545,310,6,1,0.4666831
37,40,167.8,143.9,80,60,1,37,16,36,38,162100,2,2,-2,0,-2,0,4,5,0,546,434,5,1,1.0001163
37,40,167.8,143.9,80,60,1,37,16,36,38,18500,1,1,2,0,-2,0,0,5,0,547,447,5,1,1.1860823
37,40,167.8,143.9,80,60,1,37,16,36,38,73100,2,2,-2,0,2,0,0,6,45,548,217,6,1,0.5334084
37,40,167.8,143.9,80,60,1,37,16,36,38,66100,2,2,-2,0,2,0,0,6,45,549,193,6,1,0.4668032
37,40,167.8,143.9,80,60,1,37,16,36,38,21500,1,2,-2,0,2,0,0,5,0,550,449,5,1,0.7832945
37,40,167.8,143.9,80,60,1,37,16,36,38,143100,2,1,-2,0,2,0,0,6,45,551,399,6,1,1.2833981
37,40,167.8,143.9,80,60,1,37,16,36,38,142100,2,2,-2,0,2,0,0,5,0,552,393,5,1,0.9334425
37,40,167.8,143.9,80,60,1,37,16,36,38,126100,2,2,2,0,2,0,4,5,0,553,358,5,1,0.5500325
37,40,167.8,143.9,80,60,1,37,16,36,38,73100,2,1,2,0,2,0,4,6,45,554,216,6,1,0.4668024
37,40,167.8,143.9,80,60,1,37,16,36,38,69100,2,1,2,0,2,0,4,6,45,555,200,6,1,0.4334058
37,40,167.8,143.9,80,60,1,37,16,36,38,115100,2,2,2,0,-2,0,0,6,45,556,325,6,1,0.6001338
37,40,167.8,143.9,80,60,1,37,16,36,38,61100,2,2,-2,0,2,0,0,6,45,557,177,6,1,0.5499943
37,40,167.8,143.9,80,60,1,37,16,36,38,92500,1,1,-2,0,2,0,0,6,45,558,491,6,1,0.4334586
37,40,167.8,143.9,80,60,1,37,16,36,38,1100,2,2,-2,0,2,0,0,5,0,559,1,5,1,0.4838642
37,40,167.8,143.9,80,60,1,37,16,36,38,86100,2,2,2,0,-2,0,0,5,0,560,253,5,1,0.4833772
37,40,167.8,143.9,80,60,1,37,16,36,38,41100,2,2,2,0,-2,0,0,5,0,561,125,5,1,0.4166294
37,40,167.8,143.9,80,60,1,37,16,36,38,31500,1,1,-2,0,-2,0,4,6,45,562,464,6,1,0.4666192
37,40,167.8,143.9,80,60,1,37,16,36,38,116100,2,1,2,0,2,0,4,5,0,563,328,5,1,0.5000322
37,40,167.8,143.9,80,60,1,37,16,36,38,31100,2,1,-2,0,2,0,0,5,0,564,95,5,1,0.5668047
37,40,167.8,143.9,80,60,1,37,16,36,38,104500,1,2,2,0,2,0,4,5,0,565,502,5,1,0.4666945
37,40,167.8,143.9,80,60,1,37,16,36,38,29100,2,1,-2,0,-2,0,4,6,45,566,84,6,1,0.5001316
37,40,167.8,143.9,80,60,1,37,16,36,38,124100,2,2,2,0,-2,0,0,6,45,567,349,6,1,0.4001155
38,30,173.5,162.6,66,65,1,31,12,56,57,109100,2,2,2,0,-2,0,0,6,45,0,309,6,1,0.633398
38,30,173.5,162.6,66,65,1,31,12,56,57,4500,1,1,2,0,-2,0,0,5,0,1,439,5,1,0.5667879
38,30,173.5,162.6,66,65,1,31,12,56,57,23100,2,1,2,0,2,0,4,6,45,2,64,6,1,0.5001204
38,30,173.5,162.6,66,65,1,31,12,56,57,101500,1,1,-2,0,-2,0,4,6,45,3,492,6,1,0.8166371
38,30,173.5,162.6,66,65,1,31,12,56,57,105500,1,2,2,0,2,0,4,5,0,4,506,5,1,0.5833179
38,30,173.5,162.6,66,65,1,31,12,56,57,100100,2,1,-2,0,2,0,0,6,45,5,287,6,1,0.5500128
38,30,173.5,162.6,66,65,1,31,12,56,57,1100,2,1,-2,0,-2,0,4,6,45,6,0,6,1,0.6501055
38,30,173.5,162.6,66,65,1,31,12,56,57,125100,2,1,2,0,-2,0,0,5,0,7,355,5,1,0.6667097
38,30,173.5,162.6,66,65,1,31,12,56,57,93100,2,2,2,0,2,0,4,5,0,8,266,5,1,0.6843073
38,30,173.5,162.6,66,65,1,31,12,56,57,136100,2,1,-2,0,-2,0,4,5,0,9,380,5,1,0.6167815
38,30,173.5,162.6,66,65,1,31,12,56,57,76100,2,1,-2,0,-2,0,4,6,45,10,224,6,1,0.583386
38,30,173.5,162.6,66,65,1,31,12,56,57,10100,2,1,-2,0,2,0,0,6,45,11,35,6,1,0.7000336
38,30,173.5,162.6,66,65,1,31,12,56,57,117100,2,1,-2,0,2,0,0,6,45,12,335,6,1,0.4832886
38,30,173.5,162.6,66,65,1,31,12,56,57,92500,1,2,2,0,-2,0,0,6,45,13,489,5,0,0.7834301
38,30,173.5,162.6,66,65,1,31,12,56,57,60100,2,1,2,0,2,0,4,6,45,14,172,6,1,0.6001236
38,30,173.5,162.6,66,65,1,31,12,56,57,57100,2,1,-2,0,2,0,0,5,0,15,167,5,1,0.6000619
38,30,173.5,162.6,66,65,1,31,12,56,57,161100,2,1,-2,0,-2,0,4,6,45,16,428,6,1,0.6000401
38,30,173.5,162.6,66,65,1,31,12,56,57,94100,2,2,-2,0,-2,0,4,5,0,17,270,5,1,0.6501247
38,30,173.5,162.6,66,65,1,31,12,56,57,28100,2,2,2,0,2,0,4,5,0,18,82,5,1,0.6333698
38,30,173.5,162.6,66,65,1,31,12,56,57,140500,1,1,-2,0,-2,0,4,5,0,19,548,5,1,0.5333855
38,30,173.5,162.6,66,65,1,31,12,56,57,81100,2,1,-2,0,2,0,0,5,0,20,243,5,1,0.633454
38,30,173.5,162.6,66,65,1,31,12,56,57,45100,2,2,-2,0,2,0,0,6,45,21,137,6,1,0.6500475
38,30,173.5,162.6,66,65,1,31,12,56,57,20100,2,2,2,0,2,0,4,6,45,22,58,6,1,0.6167896
38,30,173.5,162.6,66,65,1,31,12,56,57,150100,2,2,2,0,2,0,4,5,0,23,410,5,1,0.5834353
38,30,173.5,162.6,66,65,1,31,12,56,57,72100,2,1,-2,0,-2,0,4,6,45,24,212,6,1,0.6167415
38,30,173.5,162.6,66,65,1,31,12,56,57,11100,2,1,-2,0,-2,0,4,6,45,25,36,6,1,0.6000175
38,30,173.5,162.6,66,65,1,31,12,56,57,13100,2,2,-2,0,2,0,0,5,0,26,41,5,1,0.5850047
38,30,173.5,162.6,66,65,1,31,12,56,57,10100,2,2,2,0,-2,0,0,6,45,27,33,6,1,0.6000639
38,30,173.5,162.6,66,65,1,31,12,56,57,68500,1,2,2,0,-2,0,0,6,45,28,481,6,1,0.5500342
38,30,173.5,162.6,66,65,1,31,12,56,57,92500,1,2,2,0,2,0,4,5,0,29,490,5,1,0.5666706
38,30,173.5,162.6,66,65,1,31,12,56,57,52100,2,1,-2,0,-2,0,4,5,0,30,152,5,1,0.3667036
38,30,173.5,162.6,66,65,1,31,12,56,57,172500,1,1,-2,0,-2,0,4,6,45,31,560,6,1,0.5000876
38,30,173.5,162.6,66,65,1,31,12,56,57,126100,2,2,2,0,-2,0,0,6,45,32,357,6,1,0.5500491
38,30,173.5,162.6,66,65,1,31,12,56,57,31100,2,1,-2,0,2,0,0,6,45,33,95,6,1,0.5334163
38,30,173.5,162.6,66,65,1,31,12,56,57,132100,2,1,-2,0,-2,0,4,6,45,34,372,6,1,0.6667253
38,30,173.5,162.6,66,65,1,31,12,56,57,94100,2,1,2,0,-2,0,0,5,0,35,271,5,1,0.8167403
38,30,173.5,162.6,66,65,1,31,12,56,57,33500,1,2,2,0,-2,0,0,6,45,36,469,6,1,0.5667569
38,30,173.5,162.6,66,65,1,31,12,56,57,36100,2,1,-2,0,2,0,0,6,45,37,111,6,1,0.5000388
38,30,173.5,162.6,66,65,1,31,12,56,57,27100,2,2,-2,0,-2,0,4,5,0,38,78,5,1,0.483392
38,30,173.5,162.6,66,65,1,31,12,56,57,5100,2,2,-2,0,-2,0,4,6,45,39,18,6,1,0.5172951
38,30,173.5,162.6,66,65,1,31,12,56,57,68500,1,1,-2,0,2,0,0,5,0,40,483,5,1,0.5667231
38,30,173.5,162.6,66,65,1,31,12,56,57,20100,2,1,-2,0,2,0,0,6,45,41,59,6,1,0.7833567
38,30,173.5,162.6,66,65,1,31,12,56,57,23100,2,1,2,0,-2,0,0,5,0,42,67,5,1,0.7687122
38,30,173.5,162.6,66,65,1,31,12,56,57,4500,1,2,-2,0,2,0,0,5,0,43,437,5,1,0.7666268
38,30,173.5,162.6,66,65,1,31,12,56,57,83100,2,1,2,0,2,0,4,6,45,44,244,6,1,0.5666262
38,30,173.5,162.6,66,65,1,31,12,56,57,172500,1,2,2,0,-2,0,0,6,45,45,561,6,1,0.7166453
38,30,173.5,162.6,66,65,1,31,12,56,57,29100,2,2,2,0,-2,0,0,5,0,46,85,5,1,0.6999859
38,30,173.5,162.6,66,65,1,31,12,56,57,7100,2,1,-2,0,-2,0,4,6,45,47,20,6,1,0.6167779
38,30,173.5,162.6,66,65,1,31,12,56,57,47100,2,1,-2,0,-2,0,4,5,0,48,140,5,1,0.6174512
38,30,173.5,162.6,66,65,1,31,12,56,57,93100,2,1,-2,0,2,0,0,5,0,49,267,5,1,0.6501175
38,30,173.5,162.6,66,65,1,31,12,56,57,29500,1,2,-2,0,-2,0,4,5,0,50,462,5,1,0.5834555
38,30,173.5,162.6,66,65,1,31,12,56,57,96100,2,2,2,0,2,0,4,5,0,51,278,5,1,0.5167851
38,30,173.5,162.6,66,65,1,31,12,56,57,150100,2,1,-2,0,-2,0,4,6,45,52,408,6,1,0.5500372
38,30,173.5,162.6,66,65,1,31,12,56,57,107100,2,1,-2,0,2,0,0,5,0,53,303,5,1,0.5001213
38,30,173.5,162.6,66,65,1,31,12,56,57,28100,2,1,-2,0,-2,0,4,6,45,54,80,6,1,0.5500515
38,30,173.5,162.6,66,65,1,31,12,56,57,8100,2,1,-2,0,-2,0,4,6,45,55,24,6,1,0.5500425
38,30,173.5,162.6,66,65,1,31,12,56,57,29100,2,1,-2,0,-2,0,4,5,0,56,84,5,1,0.5500992
38,30,173.5,162.6,66,65,1,31,12,56,57,158100,2,2,-2,0,2,0,0,5,0,57,425,5,1,0.5501003
38,30,173.5,162.6,66,65,1,31,12,56,57,172500,1,1,-2,0,2,0,0,6,45,58,563,6,1,0.5167566
38,30,173.5,162.6,66,65,1,31,12,56,57,38100,2,1,-2,0,2,0,0,5,0,59,119,5,1,0.5498922
38,30,173.5,162.6,66,65,1,31,12,56,57,9100,2,1,2,0,-2,0,0,6,45,60,31,6,1,0.4668035
38,30,173.5,162.6,66,65,1,31,12,56,57,41100,2,2,-2,0,-2,0,4,5,0,61,126,5,1,0.5833761
38,30,173.5,162.6,66,65,1,31,12,56,57,127100,2,2,2,0,-2,0,0,5,0,62,361,5,1,0.5166787
38,30,173.5,162.6,66,65,1,31,12,56,57,72100,2,2,2,0,2,0,4,5,0,63,214,5,1,0.4678448
38,30,173.5,162.6,66,65,1,31,12,56,57,138100,2,2,2,0,-2,0,0,5,0,64,385,5,1,0.4167953
38,30,173.5,162.6,66,65,1,31,12,56,57,95100,2,2,2,0,2,0,4,5,0,65,274,5,1,0.4334129
38,30,173.5,162.6,66,65,1,31,12,56,57,120100,2,2,2,0,-2,0,0,5,0,66,337,5,1,0.383416
38,30,173.5,162.6,66,65,1,31,12,56,57,42100,2,1,-2,0,2,0,0,6,45,67,131,6,1,0.4833667
38,30,173.5,162.6,66,65,1,31,12,56,57,132100,2,1,-2,0,2,0,0,6,45,68,375,6,1,0.4667693
38,30,173.5,162.6,66,65,1,31,12,56,57,138500,1,2,-2,0,-2,0,4,6,45,69,546,6,1,0.5334637
38,30,173.5,162.6,66,65,1,31,12,56,57,125500,1,1,-2,0,2,0,0,6,45,70,527,6,1,0.4516299
38,30,173.5,162.6,66,65,1,31,12,56,57,61100,2,2,2,0,2,0,4,6,45,71,178,6,1,0.5001293
38,30,173.5,162.6,66,65,1,31,12,56,57,56100,2,1,2,0,-2,0,0,6,45,72,163,6,1,0.433379
38,30,173.5,162.6,66,65,1,31,12,56,57,21500,1,1,2,0,-2,0,0,6,45,73,451,5,0,0.583469
38,30,173.5,162.6,66,65,1,31,12,56,57,27100,2,1,2,0,-2,0,0,6,45,74,79,6,1,0.6000338
38,30,173.5,162.6,66,65,1,31,12,56,57,49100,2,1,2,0,-2,0,0,5,0,75,151,5,1,0.5500264
38,30,173.5,162.6,66,65,1,31,12,56,57,25100,2,1,-2,0,2,0,0,5,0,76,71,5,1,0.5834679
38,30,173.5,162.6,66,65,1,31,12,56,57,116100,2,1,2,0,-2,0,0,5,0,77,331,5,1,0.5167168
38,30,173.5,162.6,66,65,1,31,12,56,57,104500,1,1,-2,0,-2,0,4,5,0,78,500,5,1,0.5168018
38,30,173.5,162.6,66,65,1,31,12,56,57,17100,2,2,2,0,2,0,4,5,0,79,50,5,1,0.5517739
38,30,173.5,162.6,66,65,1,31,12,56,57,56100,2,1,2,0,2,0,4,6,45,80,160,6,1,0.6167119
38,30,173.5,162.6,66,65,1,31,12,56,57,68100,2,1,2,0,2,0,4,5,0,81,196,5,1,0.6834134
38,30,173.5,162.6,66,65,1,31,12,56,57,152100,2,1,2,0,-2,0,0,5,0,82,415,5,1,0.5842087
38,30,173.5,162.6,66,65,1,31,12,56,57,36100,2,2,2,0,2,0,4,6,45,83,110,6,1,0.9000976
38,30,173.5,162.6,66,65,1,31,12,56,57,111100,2,1,2,0,2,0,4,6,45,84,316,6,1,0.4500909
38,30,173.5,162.6,66,65,1,31,12,56,57,22100,2,2,2,0,2,0,4,5,0,85,62,5,1,0.6000212
38,30,173.5,162.6,66,65,1,31,12,56,57,138500,1,2,-2,0,2,0,0,6,45,86,545,6,1,0.6334528
38,30,173.5,162.6,66,65,1,31,12,56,57,8100,2,2,2,0,2,0,4,6,45,87,26,6,1,0.5166408
38,30,173.5,162.6,66,65,1,31,12,56,57,117500,1,1,-2,0,2,0,0,5,0,88,515,5,1,0.6001289
38,30,173.5,162.6,66,65,1,31,12,56,57,105500,1,1,-2,0,2,0,0,5,0,89,507,5,1,0.533371
38,30,173.5,162.6,66,65,1,31,12,56,57,87100,2,2,-2,0,-2,0,4,5,0,90,258,5,1,0.4500232
38,30,173.5,162.6,66,65,1,31,12,56,57,79100,2,1,2,0,-2,0,0,6,45,91,235,6,1,0.5666416
38,30,173.5,162.6,66,65,1,31,12,56,57,49100,2,1,2,0,2,0,4,6,45,92,148,6,1,0.6000212
38,30,173.5,162.6,66,65,1,31,12,56,57,121100,2,2,-2,0,2,0,0,5,0,93,341,5,1,0.6500991
38,30,173.5,162.6,66,65,1,31,12,56,57,104500,1,2,2,0,-2,0,0,5,0,94,501,5,1,0.6000281
38,30,173.5,162.6,66,65,1,31,12,56,57,13100,2,2,-2,0,-2,0,4,6,45,95,42,6,1,0.6167578
38,30,173.5,162.6,66,65,1,31,12,56,57,81100,2,1,-2,0,-2,0,4,6,45,96,240,6,1,0.5333759
38,30,173.5,162.6,66,65,1,31,12,56,57,40100,2,1,-2,0,-2,0,4,6,45,97,120,6,1,0.6501159
38,30,173.5,162.6,66,65,1,31,12,56,57,130500,1,1,2,0,2,0,4,5,0,98,532,5,1,0.5333748
38,30,173.5,162.6,66,65,1,31,12,56,57,84100,2,2,2,0,2,0,4,6,45,99,250,6,1,0.6014431
38,30,173.5,162.6,66,65,1,31,12,56,57,77100,2,2,2,0,-2,0,0,6,45,100,229,6,1,0.8667097
38,30,173.5,162.6,66,65,1,31,12,56,57,161100,2,2,2,0,-2,0,0,5,0,101,429,5,1,0.6166913
38,30,173.5,162.6,66,65,1,31,12,56,57,128500,1,1,-2,0,2,0,0,5,0,102,531,5,1,0.6167094
38,30,173.5,162.6,66,65,1,31,12,56,57,127100,2,1,-2,0,-2,0,4,5,0,103,360,5,1,0.4166468
38,30,173.5,162.6,66,65,1,31,12,56,57,84100,2,2,2,0,-2,0,0,5,0,104,249,5,1,0.4667158
38,30,173.5,162.6,66,65,1,31,12,56,57,126100,2,2,2,0,2,0,4,6,45,105,358,6,1,0.7500358
38,30,173.5,162.6,66,65,1,31,12,56,57,100100,2,2,2,0,2,0,4,5,0,106,286,5,1,0.6333753
38,30,173.5,162.6,66,65,1,31,12,56,57,32100,2,2,2,0,2,0,4,6,45,107,98,6,1,0.6833917
38,30,173.5,162.6,66,65,1,31,12,56,57,107100,2,2,2,0,2,0,4,5,0,108,302,5,1,0.8833672
38,30,173.5,162.6,66,65,1,31,12,56,57,63500,1,2,2,0,-2,0,0,6,45,109,477,6,1,0.7500404
38,30,173.5,162.6,66,65,1,31,12,56,57,103500,1,2,-2,0,2,0,0,5,0,110,497,5,1,0.5668042
38,30,173.5,162.6,66,65,1,31,12,56,57,126100,2,1,-2,0,2,0,0,6,45,111,359,6,1,0.667291
38,30,173.5,162.6,66,65,1,31,12,56,57,122100,2,2,2,0,2,0,4,6,45,112,346,6,1,0.516794
38,30,173.5,162.6,66,65,1,31,12,56,57,75100,2,2,-2,0,2,0,0,5,0,113,221,5,1,0.6167747
38,30,173.5,162.6,66,65,1,31,12,56,57,125100,2,2,-2,0,2,0,0,5,0,114,353,5,1,0.6167555
38,30,173.5,162.6,66,65,1,31,12,56,57,108100,2,2,-2,0,2,0,0,6,45,115,305,6,1,0.6001223
38,30,173.5,162.6,66,65,1,31,12,56,57,52100,2,2,2,0,2,0,4,5,0,116,154,5,1,0.5167893
38,30,173.5,162.6,66,65,1,31,12,56,57,62100,2,1,-2,0,-2,0,4,5,0,117,180,5,1,0.61678
38,30,173.5,162.6,66,65,1,31,12,56,57,122100,2,2,2,0,-2,0,0,6,45,118,345,6,1,0.6167007
38,30,173.5,162.6,66,65,1,31,12,56,57,104500,1,2,2,0,2,0,4,6,45,119,502,6,1,0.5667014
38,30,173.5,162.6,66,65,1,31,12,56,57,41500,1,2,-2,0,-2,0,4,6,45,120,474,6,1,0.5000228
38,30,173.5,162.6,66,65,1,31,12,56,57,27100,2,2,-2,0,2,0,0,6,45,121,77,6,1,0.4333251
38,30,173.5,162.6,66,65,1,31,12,56,57,70100,2,2,2,0,2,0,4,6,45,122,206,6,1,0.5167793
38,30,173.5,162.6,66,65,1,31,12,56,57,75100,2,1,2,0,-2,0,0,5,0,123,223,5,1,0.9500372
38,30,173.5,162.6,66,65,1,31,12,56,57,68500,1,1,-2,0,-2,0,4,5,0,124,480,5,1,0.4501323
38,30,173.5,162.6,66,65,1,31,12,56,57,62100,2,2,2,0,-2,0,0,6,45,125,181,6,1,0.5833995
38,30,173.5,162.6,66,65,1,31,12,56,57,13100,2,1,2,0,-2,0,0,5,0,126,43,5,1,0.5500365
38,30,173.5,162.6,66,65,1,31,12,56,57,108100,2,1,2,0,2,0,4,6,45,127,304,6,1,0.5167633
38,30,173.5,162.6,66,65,1,31,12,56,57,3100,2,2,2,0,2,0,4,5,0,128,10,5,1,0.4834304
38,30,173.5,162.6,66,65,1,31,12,56,57,131500,1,1,-2,0,2,0,0,5,0,129,539,5,1,0.4834064
38,30,173.5,162.6,66,65,1,31,12,56,57,43100,2,2,2,0,-2,0,0,5,0,130,133,5,1,0.4667552
38,30,173.5,162.6,66,65,1,31,12,56,57,94100,2,1,2,0,2,0,4,6,45,131,268,6,1,0.4341538
38,30,173.5,162.6,66,65,1,31,12,56,57,124100,2,1,-2,0,-2,0,4,5,0,132,348,5,1,0.4500899
38,30,173.5,162.6,66,65,1,31,12,56,57,69500,1,1,2,0,-2,0,0,5,0,133,487,5,1,0.400065
38,30,173.5,162.6,66,65,1,31,12,56,57,152100,2,2,-2,0,2,0,0,5,0,134,413,5,1,0.5167058
38,30,173.5,162.6,66,65,1,31,12,56,57,105100,2,1,2,0,2,0,4,6,45,135,292,6,1,0.5000421
38,30,173.5,162.6,66,65,1,31,12,56,57,29100,2,2,2,0,2,0,4,5,0,136,86,5,1,0.3501359
38,30,173.5,162.6,66,65,1,31,12,56,57,28100,2,1,-2,0,2,0,0,5,0,137,83,5,1,0.5000347
38,30,173.5,162.6,66,65,1,31,12,56,57,63100,2,1,2,0,-2,0,0,6,45,138,187,6,1,0.5517839
38,30,173.5,162.6,66,65,1,31,12,56,57,70100,2,1,-2,0,2,0,0,5,0,139,207,5,1,0.4834282
38,30,173.5,162.6,66,65,1,31,12,56,57,5100,2,1,2,0,2,0,4,5,0,140,16,5,1,0.3834276
38,30,173.5,162.6,66,65,1,31,12,56,57,107100,2,1,-2,0,-2,0,4,6,45,141,300,5,0,0.3667581
38,30,173.5,162.6,66,65,1,31,12,56,57,138500,1,1,2,0,2,0,4,6,45,142,544,6,1,0.4833939
38,30,173.5,162.6,66,65,1,31,12,56,57,38100,2,2,2,0,2,0,4,5,0,143,118,5,1,0.516631
38,30,173.5,162.6,66,65,1,31,12,56,57,146100,2,1,-2,0,2,0,0,5,0,144,407,5,1,0.6847299
38,30,173.5,162.6,66,65,1,31,12,56,57,143100,2,1,-2,0,2,0,0,6,45,145,399,6,1,0.4000425
38,30,173.5,162.6,66,65,1,31,12,56,57,25100,2,2,2,0,2,0,4,5,0,146,70,5,1,0.5167324
38,30,173.5,162.6,66,65,1,31,12,56,57,8100,2,2,2,0,-2,0,0,5,0,147,25,5,1,0.4000576
38,30,173.5,162.6,66,65,1,31,12,56,57,31100,2,2,2,0,2,0,4,6,45,148,94,6,1,0.4333667
38,30,173.5,162.6,66,65,1,31,12,56,57,71100,2,1,2,0,-2,0,0,6,45,149,211,6,1,0.550024
38,30,173.5,162.6,66,65,1,31,12,56,57,108500,1,2,-2,0,-2,0,4,5,0,150,510,5,1,0.633368
38,30,173.5,162.6,66,65,1,31,12,56,57,162100,2,2,2,0,-2,0,0,6,45,151,433,6,1,0.5167024
38,30,173.5,162.6,66,65,1,31,12,56,57,68500,1,2,2,0,2,0,4,5,0,152,482,5,1,0.5166955
38,30,173.5,162.6,66,65,1,31,12,56,57,125500,1,1,-2,0,-2,0,4,5,0,153,524,5,1,0.4333683
38,30,173.5,162.6,66,65,1,31,12,56,57,31100,2,1,-2,0,-2,0,4,5,0,154,92,5,1,0.4666905
38,30,173.5,162.6,66,65,1,31,12,56,57,4100,2,1,-2,0,-2,0,4,6,45,155,12,6,1,0.4666802
38,30,173.5,162.6,66,65,1,31,12,56,57,55100,2,2,2,0,-2,0,0,6,45,156,157,6,1,0.5001399
38,30,173.5,162.6,66,65,1,31,12,56,57,94100,2,2,-2,0,2,0,0,6,45,157,269,6,1,0.3833857
38,30,173.5,162.6,66,65,1,31,12,56,57,37100,2,1,2,0,-2,0,0,6,45,158,115,5,0,0.4000163
38,30,173.5,162.6,66,65,1,31,12,56,57,30100,2,1,2,0,2,0,4,5,0,159,88,5,1,0.6340833
38,30,173.5,162.6,66,65,1,31,12,56,57,110100,2,1,-2,0,2,0,0,5,0,160,315,5,1,0.5000585
38,30,173.5,162.6,66,65,1,31,12,56,57,83100,2,2,-2,0,2,0,0,6,45,161,245,6,1,0.5000859
38,30,173.5,162.6,66,65,1,31,12,56,57,26100,2,1,-2,0,-2,0,4,5,0,162,72,5,1,1.3333346
38,30,173.5,162.6,66,65,1,31,12,56,57,29100,2,1,-2,0,2,0,0,5,0,163,87,5,1,0.5166926
38,30,173.5,162.6,66,65,1,31,12,56,57,115100,2,2,2,0,-2,0,0,5,0,164,325,5,1,0.4834673
38,30,173.5,162.6,66,65,1,31,12,56,57,138100,2,1,-2,0,2,0,0,5,0,165,387,5,1,0.466766
38,30,173.5,162.6,66,65,1,31,12,56,57,57100,2,2,2,0,-2,0,0,6,45,166,165,6,1,0.6667549
38,30,173.5,162.6,66,65,1,31,12,56,57,41500,1,1,2,0,2,0,4,6,45,167,472,6,1,0.6667972
38,30,173.5,162.6,66,65,1,31,12,56,57,141500,1,1,-2,0,-2,0,4,6,45,168,552,6,1,0.5500121
38,30,173.5,162.6,66,65,1,31,12,56,57,98100,2,1,2,0,2,0,4,5,0,169,280,5,1,0.5005105
38,30,173.5,162.6,66,65,1,31,12,56,57,76100,2,1,-2,0,2,0,0,5,0,170,227,5,1,0.4167615
38,30,173.5,162.6,66,65,1,31,12,56,57,33100,2,1,2,0,-2,0,0,5,0,171,103,5,1,0.5001211
38,30,173.5,162.6,66,65,1,31,12,56,57,12500,1,2,2,0,-2,0,0,5,0,172,441,5,1,0.3500195
38,30,173.5,162.6,66,65,1,31,12,56,57,18100,2,1,2,0,-2,0,0,6,45,173,55,6,1,0.4500451
38,30,173.5,162.6,66,65,1,31,12,56,57,69500,1,2,-2,0,-2,0,4,5,0,174,486,5,1,0.5501163
38,30,173.5,162.6,66,65,1,31,12,56,57,117500,1,1,-2,0,-2,0,4,5,0,175,512,5,1,0.5667941
38,30,173.5,162.6,66,65,1,31,12,56,57,117500,1,2,2,0,2,0,4,6,45,176,514,6,1,0.466695
38,30,173.5,162.6,66,65,1,31,12,56,57,22100,2,1,-2,0,-2,0,4,5,0,177,60,5,1,0.4666917
38,30,173.5,162.6,66,65,1,31,12,56,57,157100,2,2,2,0,-2,0,0,5,0,178,421,5,1,0.4667238
38,30,173.5,162.6,66,65,1,31,12,56,57,143100,2,2,2,0,2,0,4,6,45,179,398,6,1,0.4833906
38,30,173.5,162.6,66,65,1,31,12,56,57,144100,2,2,-2,0,2,0,0,5,0,180,401,5,1,0.5834262
38,30,173.5,162.6,66,65,1,31,12,56,57,96100,2,2,2,0,-2,0,0,6,45,181,277,6,1,0.5334297
38,30,173.5,162.6,66,65,1,31,12,56,57,141500,1,2,2,0,-2,0,0,5,0,182,553,5,1,0.5667766
38,30,173.5,162.6,66,65,1,31,12,56,57,1100,2,2,2,0,2,0,4,5,0,183,2,5,1,0.900035
38,30,173.5,162.6,66,65,1,31,12,56,57,131100,2,1,-2,0,2,0,0,6,45,184,371,6,1,0.4000406
38,30,173.5,162.6,66,65,1,31,12,56,57,11100,2,1,-2,0,2,0,0,6,45,185,39,6,1,0.4001342
38,30,173.5,162.6,66,65,1,31,12,56,57,131500,1,2,2,0,2,0,4,5,0,186,538,5,1,0.4349071
38,30,173.5,162.6,66,65,1,31,12,56,57,73100,2,2,2,0,2,0,4,6,45,187,218,6,1,0.6166968
38,30,173.5,162.6,66,65,1,31,12,56,57,123500,1,2,-2,0,2,0,0,6,45,188,521,6,1,0.5333416
38,30,173.5,162.6,66,65,1,31,12,56,57,130500,1,2,-2,0,2,0,0,5,0,189,533,5,1,0.5167234
38,30,173.5,162.6,66,65,1,31,12,56,57,29500,1,1,2,0,2,0,4,5,0,190,460,5,1,0.5166985
38,30,173.5,162.6,66,65,1,31,12,56,57,110100,2,1,-2,0,-2,0,4,5,0,191,312,5,1,0.4833733
38,30,173.5,162.6,66,65,1,31,12,56,57,143100,2,2,2,0,-2,0,0,6,45,192,397,6,1,0.5334572
38,30,173.5,162.6,66,65,1,31,12,56,57,108500,1,1,2,0,2,0,4,6,45,193,508,6,1,0.4833768
38,30,173.5,162.6,66,65,1,31,12,56,57,52100,2,1,-2,0,2,0,0,5,0,194,155,5,1,0.566707
38,30,173.5,162.6,66,65,1,31,12,56,57,32100,2,1,-2,0,-2,0,4,6,45,195,96,6,1,0.6668042
38,30,173.5,162.6,66,65,1,31,12,56,57,113100,2,1,-2,0,2,0,0,5,0,196,323,5,1,0.5501326
38,30,173.5,162.6,66,65,1,31,12,56,57,109100,2,2,2,0,2,0,4,5,0,197,310,5,1,0.516719
38,30,173.5,162.6,66,65,1,31,12,56,57,77100,2,1,-2,0,-2,0,4,5,0,198,228,5,1,1.0174379
38,30,173.5,162.6,66,65,1,31,12,56,57,3100,2,2,2,0,-2,0,0,6,45,199,9,6,1,0.916935
38,30,173.5,162.6,66,65,1,31,12,56,57,26100,2,2,2,0,2,0,4,5,0,200,74,5,1,0.5667919
38,30,173.5,162.6,66,65,1,31,12,56,57,41100,2,1,2,0,2,0,4,6,45,201,124,6,1,0.6667442
38,30,173.5,162.6,66,65,1,31,12,56,57,100100,2,2,2,0,-2,0,0,5,0,202,285,5,1,0.8667645
38,30,173.5,162.6,66,65,1,31,12,56,57,116100,2,2,-2,0,2,0,0,5,0,203,329,5,1,0.7167276
38,30,173.5,162.6,66,65,1,31,12,56,57,162100,2,1,-2,0,2,0,0,5,0,204,435,5,1,0.450024
38,30,173.5,162.6,66,65,1,31,12,56,57,142100,2,1,-2,0,2,0,0,6,45,205,395,6,1,0.5000366
38,30,173.5,162.6,66,65,1,31,12,56,57,38100,2,2,2,0,-2,0,0,5,0,206,117,5,1,0.4681323
38,30,173.5,162.6,66,65,1,31,12,56,57,150100,2,2,2,0,-2,0,0,6,45,207,409,6,1,0.6501371
38,30,173.5,162.6,66,65,1,31,12,56,57,105100,2,2,-2,0,2,0,0,6,45,208,293,6,1,1.0834063
38,30,173.5,162.6,66,65,1,31,12,56,57,7100,2,2,2,0,2,0,4,5,0,209,22,5,1,0.5166406
38,30,173.5,162.6,66,65,1,31,12,56,57,128500,1,1,-2,0,-2,0,4,5,0,210,528,5,1,0.4001377
38,30,173.5,162.6,66,65,1,31,12,56,57,144100,2,2,-2,0,-2,0,4,5,0,211,402,5,1,0.3168294
38,30,173.5,162.6,66,65,1,31,12,56,57,152100,2,1,2,0,2,0,4,6,45,212,412,6,1,0.4666268
38,30,173.5,162.6,66,65,1,31,12,56,57,101500,1,1,-2,0,2,0,0,6,45,213,495,6,1,0.4000613
38,30,173.5,162.6,66,65,1,31,12,56,57,55100,2,1,-2,0,2,0,0,6,45,214,159,6,1,0.3833603
38,30,173.5,162.6,66,65,1,31,12,56,57,69100,2,1,-2,0,2,0,0,5,0,215,203,5,1,0.583364
38,30,173.5,162.6,66,65,1,31,12,56,57,101100,2,2,2,0,-2,0,0,5,0,216,289,5,1,0.4667017
38,30,173.5,162.6,66,65,1,31,12,56,57,136100,2,2,2,0,2,0,4,5,0,217,382,5,1,0.4168026
38,30,173.5,162.6,66,65,1,31,12,56,57,117100,2,2,2,0,-2,0,0,6,45,218,333,6,1,0.5667154
38,30,173.5,162.6,66,65,1,31,12,56,57,100100,2,1,-2,0,-2,0,4,5,0,219,284,5,1,0.5500243
38,30,173.5,162.6,66,65,1,31,12,56,57,120100,2,1,-2,0,-2,0,4,6,45,220,336,6,1,0.5333415
38,30,173.5,162.6,66,65,1,31,12,56,57,111100,2,1,2,0,-2,0,0,6,45,221,319,6,1,0.5176133
38,30,173.5,162.6,66,65,1,31,12,56,57,122100,2,1,-2,0,2,0,0,5,0,222,347,5,1,0.5834483
38,30,173.5,162.6,66,65,1,31,12,56,57,41100,2,2,-2,0,2,0,0,5,0,223,125,5,1,0.4669344
38,30,173.5,162.6,66,65,1,31,12,56,57,35100,2,2,2,0,-2,0,0,6,45,224,105,6,1,0.5333696
38,30,173.5,162.6,66,65,1,31,12,56,57,75100,2,2,-2,0,-2,0,4,6,45,225,222,6,1,0.5525741
38,30,173.5,162.6,66,65,1,31,12,56,57,132500,1,1,-2,0,2,0,0,6,45,226,543,6,1,0.5501288
38,30,173.5,162.6,66,65,1,31,12,56,57,69500,1,2,-2,0,2,0,0,6,45,227,485,6,1,0.4167999
38,30,173.5,162.6,66,65,1,31,12,56,57,26500,1,1,-2,0,-2,0,4,6,45,228,456,6,1,0.3833753
38,30,173.5,162.6,66,65,1,31,12,56,57,55100,2,2,2,0,2,0,4,5,0,229,158,5,1,0.5500436
38,30,173.5,162.6,66,65,1,31,12,56,57,161100,2,1,-2,0,2,0,0,6,45,230,431,6,1,0.5666994
38,30,173.5,162.6,66,65,1,31,12,56,57,144100,2,1,2,0,-2,0,0,6,45,231,403,6,1,0.4844028
38,30,173.5,162.6,66,65,1,31,12,56,57,40100,2,1,-2,0,2,0,0,6,45,232,123,6,1,0.7334091
38,30,173.5,162.6,66,65,1,31,12,56,57,124100,2,2,2,0,-2,0,0,5,0,233,349,5,1,0.4501364
38,30,173.5,162.6,66,65,1,31,12,56,57,26500,1,2,2,0,-2,0,0,5,0,234,457,5,1,0.3834166
38,30,173.5,162.6,66,65,1,31,12,56,57,126100,2,1,-2,0,-2,0,4,6,45,235,356,6,1,0.4833875
38,30,173.5,162.6,66,65,1,31,12,56,57,108500,1,1,2,0,-2,0,0,5,0,236,511,5,1,0.5166523
38,30,173.5,162.6,66,65,1,31,12,56,57,28100,2,2,2,0,-2,0,0,5,0,237,81,5,1,0.5516967
38,30,173.5,162.6,66,65,1,31,12,56,57,146100,2,2,2,0,2,0,4,6,45,238,406,6,1,0.5500911
38,30,173.5,162.6,66,65,1,31,12,56,57,141500,1,2,2,0,2,0,4,6,45,239,554,6,1,0.6334112
38,30,173.5,162.6,66,65,1,31,12,56,57,36100,2,1,-2,0,-2,0,4,6,45,240,108,6,1,0.5000239
38,30,173.5,162.6,66,65,1,31,12,56,57,134100,2,1,2,0,2,0,4,6,45,241,376,6,1,0.4168268
38,30,173.5,162.6,66,65,1,31,12,56,57,161100,2,2,2,0,2,0,4,6,45,242,430,6,1,0.3175447
38,30,173.5,162.6,66,65,1,31,12,56,57,141100,2,1,2,0,2,0,4,5,0,243,388,5,1,0.7167557
38,30,173.5,162.6,66,65,1,31,12,56,57,33500,1,1,-2,0,2,0,0,6,45,244,471,6,1,0.4666396
38,30,173.5,162.6,66,65,1,31,12,56,57,84100,2,1,-2,0,-2,0,4,5,0,245,248,5,1,0.4333631
38,30,173.5,162.6,66,65,1,31,12,56,57,95100,2,1,-2,0,2,0,0,5,0,246,275,5,1,0.5166999
38,30,173.5,162.6,66,65,1,31,12,56,57,22500,1,1,-2,0,-2,0,4,5,0,247,452,5,1,0.4001303
38,30,173.5,162.6,66,65,1,31,12,56,57,25100,2,1,-2,0,-2,0,4,5,0,248,68,5,1,0.45003
38,30,173.5,162.6,66,65,1,31,12,56,57,117500,1,2,2,0,-2,0,0,5,0,249,513,5,1,0.3833706
38,30,173.5,162.6,66,65,1,31,12,56,57,93100,2,2,2,0,-2,0,0,6,45,250,265,6,1,0.5833629
38,30,173.5,162.6,66,65,1,31,12,56,57,80100,2,1,-2,0,-2,0,4,5,0,251,236,5,1,0.4666993
38,30,173.5,162.6,66,65,1,31,12,56,57,153100,2,1,-2,0,2,0,0,6,45,252,419,6,1,0.4667121
38,30,173.5,162.6,66,65,1,31,12,56,57,7100,2,1,-2,0,2,0,0,5,0,253,23,5,1,0.5834183
38,30,173.5,162.6,66,65,1,31,12,56,57,63100,2,2,-2,0,-2,0,4,6,45,254,186,6,1,0.4834386
38,30,173.5,162.6,66,65,1,31,12,56,57,43100,2,1,-2,0,-2,0,4,6,45,255,132,6,1,0.5000496
38,30,173.5,162.6,66,65,1,31,12,56,57,87100,2,1,2,0,2,0,4,6,45,256,256,6,1,0.533326
38,30,173.5,162.6,66,65,1,31,12,56,57,66100,2,2,2,0,-2,0,0,6,45,257,193,6,1,0.5000451
38,30,173.5,162.6,66,65,1,31,12,56,57,111100,2,2,-2,0,2,0,0,6,45,258,317,6,1,0.4834572
38,30,173.5,162.6,66,65,1,31,12,56,57,48100,2,2,2,0,2,0,4,5,0,259,146,5,1,1.699912
38,30,173.5,162.6,66,65,1,31,12,56,57,55100,2,1,-2,0,-2,0,4,5,0,260,156,5,1,0.4677389
38,30,173.5,162.6,66,65,1,31,12,56,57,18100,2,1,2,0,2,0,4,5,0,261,52,5,1,0.5172718
38,30,173.5,162.6,66,65,1,31,12,56,57,136100,2,1,-2,0,2,0,0,6,45,262,383,6,1,0.5166238
38,30,173.5,162.6,66,65,1,31,12,56,57,65100,2,1,-2,0,-2,0,4,5,0,263,188,5,1,0.4666345
38,30,173.5,162.6,66,65,1,31,12,56,57,96100,2,1,-2,0,-2,0,4,5,0,264,276,5,1,0.4334788
38,30,173.5,162.6,66,65,1,31,12,56,57,16100,2,2,2,0,-2,0,0,5,0,265,45,5,1,0.4500875
38,30,173.5,162.6,66,65,1,31,12,56,57,22100,2,1,-2,0,2,0,0,5,0,266,63,5,1,0.450022
38,30,173.5,162.6,66,65,1,31,12,56,57,80100,2,2,2,0,2,0,4,5,0,267,238,5,1,0.3833727
38,30,173.5,162.6,66,65,1,31,12,56,57,79100,2,1,2,0,2,0,4,6,45,268,232,6,1,0.4833711
38,30,173.5,162.6,66,65,1,31,12,56,57,30100,2,2,-2,0,-2,0,4,5,0,269,90,5,1,0.6834773
38,30,173.5,162.6,66,65,1,31,12,56,57,129100,2,2,-2,0,-2,0,4,6,45,270,366,6,1,0.7833754
38,30,173.5,162.6,66,65,1,31,12,56,57,2100,2,1,2,0,2,0,4,5,0,271,4,5,1,0.6333521
38,30,173.5,162.6,66,65,1,31,12,56,57,63500,1,2,2,0,2,0,4,6,45,272,478,6,1,0.9167288
38,30,173.5,162.6,66,65,1,31,12,56,57,73100,2,2,2,0,-2,0,0,5,0,273,217,5,1,0.5333838
38,30,173.5,162.6,66,65,1,31,12,56,57,66100,2,1,-2,0,2,0,0,6,45,274,195,6,1,0.4333495
38,30,173.5,162.6,66,65,1,31,12,56,57,157100,2,1,-2,0,2,0,0,5,0,275,423,5,1,0.6333768
38,30,173.5,162.6,66,65,1,31,12,56,57,92500,1,1,-2,0,2,0,0,5,0,276,491,5,1,0.5000417
38,30,173.5,162.6,66,65,1,31,12,56,57,106100,2,2,2,0,-2,0,0,6,45,277,297,5,0,0.4186091
38,30,173.5,162.6,66,65,1,31,12,56,57,41100,2,1,2,0,-2,0,0,5,0,278,127,5,1,0.8500504
38,30,173.5,162.6,66,65,1,31,12,56,57,17100,2,2,2,0,-2,0,0,5,0,279,49,5,1,0.4666579
38,30,173.5,162.6,66,65,1,31,12,56,57,152100,2,2,-2,0,-2,0,4,6,45,280,414,6,1,0.4167265
38,30,173.5,162.6,66,65,1,31,12,56,57,72100,2,1,-2,0,2,0,0,5,0,281,215,6,0,0.4679967
38,30,173.5,162.6,66,65,1,31,12,56,57,30100,2,1,2,0,-2,0,0,5,0,282,91,5,1,0.4186195
38,30,173.5,162.6,66,65,1,31,12,56,57,111100,2,2,-2,0,-2,0,4,6,45,283,318,6,1,0.4667041
38,30,173.5,162.6,66,65,1,31,12,56,57,108100,2,2,-2,0,-2,0,4,5,0,284,306,5,1,0.3834105
38,30,173.5,162.6,66,65,1,31,12,56,57,26100,2,2,2,0,-2,0,0,6,45,285,73,6,1,0.5842915
38,30,173.5,162.6,66,65,1,31,12,56,57,60100,2,2,-2,0,2,0,0,6,45,286,173,6,1,0.4673039
38,30,173.5,162.6,66,65,1,31,12,56,57,45100,2,1,2,0,-2,0,0,6,45,287,139,6,1,0.6501227
38,30,173.5,162.6,66,65,1,31,12,56,57,158100,2,1,2,0,-2,0,0,6,45,288,427,6,1,0.4834045
38,30,173.5,162.6,66,65,1,31,12,56,57,105100,2,1,2,0,-2,0,0,5,0,289,295,5,1,0.5500161
38,30,173.5,162.6,66,65,1,31,12,56,57,104500,1,1,-2,0,2,0,0,6,45,290,503,6,1,0.5833345
38,30,173.5,162.6,66,65,1,31,12,56,57,9100,2,2,-2,0,-2,0,4,6,45,291,30,6,1,0.7833961
38,30,173.5,162.6,66,65,1,31,12,56,57,10100,2,1,-2,0,-2,0,4,6,45,292,32,6,1,0.4853738
38,30,173.5,162.6,66,65,1,31,12,56,57,125500,1,2,2,0,2,0,4,6,45,293,526,6,1,0.4667585
38,30,173.5,162.6,66,65,1,31,12,56,57,131100,2,2,2,0,2,0,4,5,0,294,370,5,1,0.5667578
38,30,173.5,162.6,66,65,1,31,12,56,57,173500,1,1,-2,0,-2,0,4,5,0,295,564,5,1,0.4500545
38,30,173.5,162.6,66,65,1,31,12,56,57,173500,1,2,2,0,-2,0,0,5,0,296,565,5,1,0.433407
38,30,173.5,162.6,66,65,1,31,12,56,57,27100,2,1,2,0,2,0,4,6,45,297,76,6,1,0.4669013
38,30,173.5,162.6,66,65,1,31,12,56,57,123500,1,1,2,0,-2,0,0,5,0,298,523,5,1,0.4666841
38,30,173.5,162.6,66,65,1,31,12,56,57,37100,2,2,-2,0,-2,0,4,5,0,299,114,5,1,0.5999715
38,30,173.5,162.6,66,65,1,31,12,56,57,91100,2,2,2,0,2,0,4,6,45,300,262,6,1,0.5516254
38,30,173.5,162.6,66,65,1,31,12,56,57,65100,2,2,2,0,-2,0,0,6,45,301,189,6,1,1.1000209
38,30,173.5,162.6,66,65,1,31,12,56,57,69500,1,1,2,0,2,0,4,6,45,302,484,6,1,0.5002345
38,30,173.5,162.6,66,65,1,31,12,56,57,93100,2,1,-2,0,-2,0,4,6,45,303,264,6,1,0.6000545
38,30,173.5,162.6,66,65,1,31,12,56,57,63100,2,2,-2,0,2,0,0,5,0,304,185,5,1,0.7500333
38,30,173.5,162.6,66,65,1,31,12,56,57,49100,2,2,-2,0,2,0,0,5,0,305,149,5,1,0.5343066
38,30,173.5,162.6,66,65,1,31,12,56,57,8100,2,1,-2,0,2,0,0,5,0,306,27,5,1,0.9338843
38,30,173.5,162.6,66,65,1,31,12,56,57,141100,2,2,-2,0,-2,0,4,6,45,307,390,6,1,0.5000502
38,30,173.5,162.6,66,65,1,31,12,56,57,75100,2,1,2,0,2,0,4,6,45,308,220,6,1,0.4500375
38,30,173.5,162.6,66,65,1,31,12,56,57,23100,2,2,-2,0,2,0,0,6,45,309,65,6,1,0.6334437
38,30,173.5,162.6,66,65,1,31,12,56,57,25100,2,2,2,0,-2,0,0,5,0,310,69,5,1,0.5334649
38,30,173.5,162.6,66,65,1,31,12,56,57,65100,2,2,2,0,2,0,4,5,0,311,190,5,1,1.0858341
38,30,173.5,162.6,66,65,1,31,12,56,57,131500,1,2,2,0,-2,0,0,6,45,312,537,6,1,0.4999946
38,30,173.5,162.6,66,65,1,31,12,56,57,35100,2,1,-2,0,-2,0,4,5,0,313,104,5,1,0.6514103
38,30,173.5,162.6,66,65,1,31,12,56,57,77100,2,1,-2,0,2,0,0,5,0,314,231,5,1,0.5000835
38,30,173.5,162.6,66,65,1,31,12,56,57,38100,2,1,-2,0,-2,0,4,6,45,315,116,6,1,1.0000249
38,30,173.5,162.6,66,65,1,31,12,56,57,116100,2,1,2,0,2,0,4,6,45,316,328,6,1,0.9001221
38,30,173.5,162.6,66,65,1,31,12,56,57,122100,2,1,-2,0,-2,0,4,5,0,317,344,5,1,0.5501119
38,30,173.5,162.6,66,65,1,31,12,56,57,65100,2,1,-2,0,2,0,0,5,0,318,191,5,1,0.5667537
38,30,173.5,162.6,66,65,1,31,12,56,57,79100,2,2,-2,0,-2,0,4,5,0,319,234,5,1,0.5000557
38,30,173.5,162.6,66,65,1,31,12,56,57,113100,2,1,-2,0,-2,0,4,5,0,320,320,5,1,0.3167189
38,30,173.5,162.6,66,65,1,31,12,56,57,31500,1,2,2,0,2,0,4,5,0,321,466,5,1,0.3834688
38,30,173.5,162.6,66,65,1,31,12,56,57,37100,2,2,-2,0,2,0,0,5,0,322,113,5,1,0.9167207
38,30,173.5,162.6,66,65,1,31,12,56,57,37100,2,1,2,0,2,0,4,5,0,323,112,5,1,0.4667674
38,30,173.5,162.6,66,65,1,31,12,56,57,124100,2,2,2,0,2,0,4,6,45,324,350,6,1,0.6000215
38,30,173.5,162.6,66,65,1,31,12,56,57,101100,2,1,-2,0,2,0,0,5,0,325,291,5,1,4.1832945
38,30,173.5,162.6,66,65,1,31,12,56,57,31500,1,2,2,0,-2,0,0,5,0,326,465,5,1,0.416794
38,30,173.5,162.6,66,65,1,31,12,56,57,71100,2,1,2,0,2,0,4,6,45,327,208,5,0,0.3667004
38,30,173.5,162.6,66,65,1,31,12,56,57,101500,1,2,2,0,-2,0,0,5,0,328,493,5,1,0.566693
38,30,173.5,162.6,66,65,1,31,12,56,57,91100,2,2,2,0,-2,0,0,5,0,329,261,5,1,0.4000432
38,30,173.5,162.6,66,65,1,31,12,56,57,106100,2,2,2,0,2,0,4,5,0,330,298,5,1,0.4501237
38,30,173.5,162.6,66,65,1,31,12,56,57,113100,2,2,2,0,-2,0,0,6,45,331,321,6,1,0.533428
38,30,173.5,162.6,66,65,1,31,12,56,57,129100,2,2,-2,0,2,0,0,5,0,332,365,5,1,0.9500426
38,30,173.5,162.6,66,65,1,31,12,56,57,20100,2,2,2,0,-2,0,0,6,45,333,57,6,1,0.5166508
38,30,173.5,162.6,66,65,1,31,12,56,57,36100,2,2,2,0,-2,0,0,6,45,334,109,6,1,0.551629
38,30,173.5,162.6,66,65,1,31,12,56,57,48100,2,2,2,0,-2,0,0,5,0,335,145,5,1,0.4833818
38,30,173.5,162.6,66,65,1,31,12,56,57,1100,2,2,2,0,-2,0,0,6,45,336,1,6,1,0.4834453
38,30,173.5,162.6,66,65,1,31,12,56,57,101100,2,1,-2,0,-2,0,4,6,45,337,288,6,1,0.4500461
38,30,173.5,162.6,66,65,1,31,12,56,57,141500,1,1,-2,0,2,0,0,5,0,338,555,5,1,0.5333697
38,30,173.5,162.6,66,65,1,31,12,56,57,162100,2,2,2,0,2,0,4,5,0,339,434,5,1,0.500057
38,30,173.5,162.6,66,65,1,31,12,56,57,45100,2,1,2,0,2,0,4,5,0,340,136,5,1,0.4666997
38,30,173.5,162.6,66,65,1,31,12,56,57,134100,2,2,-2,0,2,0,0,5,0,341,377,5,1,0.4834175
38,30,173.5,162.6,66,65,1,31,12,56,57,134100,2,2,-2,0,-2,0,4,6,45,342,378,6,1,0.500054
38,30,173.5,162.6,66,65,1,31,12,56,57,141100,2,2,-2,0,2,0,0,6,45,343,389,6,1,0.3340721
38,30,173.5,162.6,66,65,1,31,12,56,57,57100,2,1,-2,0,-2,0,4,6,45,344,164,6,1,0.466706
38,30,173.5,162.6,66,65,1,31,12,56,57,124100,2,1,-2,0,2,0,0,5,0,345,351,5,1,0.5501341
38,30,173.5,162.6,66,65,1,31,12,56,57,142100,2,2,2,0,2,0,4,5,0,346,394,5,1,0.4167924
38,30,173.5,162.6,66,65,1,31,12,56,57,153100,2,2,2,0,-2,0,0,5,0,347,417,5,1,0.4167203
38,30,173.5,162.6,66,65,1,31,12,56,57,98100,2,2,-2,0,2,0,0,5,0,348,281,5,1,0.5999758
38,30,173.5,162.6,66,65,1,31,12,56,57,5100,2,1,2,0,-2,0,0,5,0,349,19,5,1,0.4500295
38,30,173.5,162.6,66,65,1,31,12,56,57,115100,2,1,-2,0,2,0,0,6,45,350,327,6,1,0.467697
38,30,173.5,162.6,66,65,1,31,12,56,57,4100,2,2,2,0,2,0,4,6,45,351,14,6,1,0.4666921
38,30,173.5,162.6,66,65,1,31,12,56,57,106100,2,1,-2,0,-2,0,4,6,45,352,296,6,1,0.4835975
38,30,173.5,162.6,66,65,1,31,12,56,57,110100,2,2,2,0,2,0,4,6,45,353,314,6,1,0.5333453
38,30,173.5,162.6,66,65,1,31,12,56,57,86100,2,2,2,0,-2,0,0,5,0,354,253,5,1,0.5333767
38,30,173.5,162.6,66,65,1,31,12,56,57,87100,2,2,-2,0,2,0,0,5,0,355,257,5,1,0.850101
38,30,173.5,162.6,66,65,1,31,12,56,57,120100,2,2,2,0,2,0,4,6,45,356,338,6,1,0.4667907
38,30,173.5,162.6,66,65,1,31,12,56,57,66100,2,1,-2,0,-2,0,4,6,45,357,192,6,1,0.5167213
38,30,173.5,162.6,66,65,1,31,12,56,57,131100,2,2,2,0,-2,0,0,6,45,358,369,6,1,0.4667091
38,30,173.5,162.6,66,65,1,31,12,56,57,86100,2,1,-2,0,-2,0,4,6,45,359,252,6,1,0.5000271
38,30,173.5,162.6,66,65,1,31,12,56,57,86100,2,2,2,0,2,0,4,6,45,360,254,6,1,0.5344154
38,30,173.5,162.6,66,65,1,31,12,56,57,21500,1,1,2,0,2,0,4,5,0,361,448,5,1,0.6000457
38,30,173.5,162.6,66,65,1,31,12,56,57,98100,2,1,2,0,-2,0,0,5,0,362,283,5,1,0.5833958
38,30,173.5,162.6,66,65,1,31,12,56,57,47100,2,1,-2,0,2,0,0,6,45,363,143,6,1,1.7666652
38,30,173.5,162.6,66,65,1,31,12,56,57,31500,1,1,-2,0,-2,0,4,6,45,364,464,6,1,0.4833888
38,30,173.5,162.6,66,65,1,31,12,56,57,2100,2,1,2,0,-2,0,0,6,45,365,7,6,1,0.4834347
38,30,173.5,162.6,66,65,1,31,12,56,57,106100,2,1,-2,0,2,0,0,6,45,366,299,6,1,0.4667604
38,30,173.5,162.6,66,65,1,31,12,56,57,18500,1,2,2,0,-2,0,0,5,0,367,445,5,1,0.4167166
38,30,173.5,162.6,66,65,1,31,12,56,57,42100,2,2,2,0,2,0,4,5,0,368,130,5,1,0.5167899
38,30,173.5,162.6,66,65,1,31,12,56,57,12500,1,2,2,0,2,0,4,5,0,369,442,5,1,0.7000165
38,30,173.5,162.6,66,65,1,31,12,56,57,162100,2,1,-2,0,-2,0,4,6,45,370,432,5,0,0.4833868
38,30,173.5,162.6,66,65,1,31,12,56,57,146100,2,1,-2,0,-2,0,4,5,0,371,404,5,1,0.5500363
38,30,173.5,162.6,66,65,1,31,12,56,57,33100,2,2,-2,0,2,0,0,6,45,372,101,6,1,1.1333338
38,30,173.5,162.6,66,65,1,31,12,56,57,142100,2,1,-2,0,-2,0,4,5,0,373,392,5,1,0.8500486
38,30,173.5,162.6,66,65,1,31,12,56,57,73100,2,1,-2,0,-2,0,4,6,45,374,216,6,1,1.2667539
38,30,173.5,162.6,66,65,1,31,12,56,57,146100,2,2,2,0,-2,0,0,6,45,375,405,6,1,0.5500234
38,30,173.5,162.6,66,65,1,31,12,56,57,80100,2,1,-2,0,2,0,0,5,0,376,239,5,1,0.7000239
38,30,173.5,162.6,66,65,1,31,12,56,57,32100,2,2,2,0,-2,0,0,5,0,377,97,5,1,0.8167864
38,30,173.5,162.6,66,65,1,31,12,56,57,21500,1,2,-2,0,2,0,0,5,0,378,449,5,1,0.5006859
38,30,173.5,162.6,66,65,1,31,12,56,57,22100,2,2,2,0,-2,0,0,6,45,379,61,6,1,0.5167352
38,30,173.5,162.6,66,65,1,31,12,56,57,143100,2,1,-2,0,-2,0,4,6,45,380,396,6,1,0.4833648
38,30,173.5,162.6,66,65,1,31,12,56,57,121500,1,1,-2,0,-2,0,4,6,45,381,516,6,1,0.8500301
38,30,173.5,162.6,66,65,1,31,12,56,57,41500,1,1,2,0,-2,0,0,6,45,382,475,6,1,1.5165184
38,30,173.5,162.6,66,65,1,31,12,56,57,115100,2,1,-2,0,-2,0,4,5,0,383,324,5,1,0.500016
38,30,173.5,162.6,66,65,1,31,12,56,57,120100,2,1,-2,0,2,0,0,5,0,384,339,5,1,0.4667454
38,30,173.5,162.6,66,65,1,31,12,56,57,80100,2,2,2,0,-2,0,0,6,45,385,237,6,1,0.5515123
38,30,173.5,162.6,66,65,1,31,12,56,57,129100,2,1,2,0,-2,0,0,6,45,386,367,6,1,0.4833662
38,30,173.5,162.6,66,65,1,31,12,56,57,3100,2,1,-2,0,-2,0,4,6,45,387,8,6,1,0.6834376
38,30,173.5,162.6,66,65,1,31,12,56,57,121100,2,1,2,0,2,0,4,5,0,388,340,5,1,1.6834258
38,30,173.5,162.6,66,65,1,31,12,56,57,49100,2,2,-2,0,-2,0,4,6,45,389,150,6,1,0.4833703
38,30,173.5,162.6,66,65,1,31,12,56,57,71100,2,2,-2,0,-2,0,4,6,45,390,210,6,1,0.5167096
38,30,173.5,162.6,66,65,1,31,12,56,57,60100,2,1,2,0,-2,0,0,6,45,391,175,6,1,0.550121
38,30,173.5,162.6,66,65,1,31,12,56,57,127100,2,2,2,0,2,0,4,6,45,392,362,6,1,2.5000315
38,30,173.5,162.6,66,65,1,31,12,56,57,12500,1,1,-2,0,-2,0,4,5,0,393,440,5,1,0.5833625
38,30,173.5,162.6,66,65,1,31,12,56,57,69100,2,1,-2,0,-2,0,4,6,45,394,200,6,1,1.1000287
38,30,173.5,162.6,66,65,1,31,12,56,57,77100,2,2,2,0,2,0,4,6,45,395,230,6,1,0.4672051
38,30,173.5,162.6,66,65,1,31,12,56,57,123500,1,2,-2,0,-2,0,4,5,0,396,522,5,1,0.5667986
38,30,173.5,162.6,66,65,1,31,12,56,57,22500,1,2,2,0,-2,0,0,5,0,397,453,5,1,0.500056
38,30,173.5,162.6,66,65,1,31,12,56,57,107100,2,2,2,0,-2,0,0,5,0,398,301,5,1,0.5000984
38,30,173.5,162.6,66,65,1,31,12,56,57,157100,2,2,2,0,2,0,4,6,45,399,422,6,1,0.5000231
38,30,173.5,162.6,66,65,1,31,12,56,57,56100,2,2,-2,0,2,0,0,6,45,400,161,6,1,0.5668079
38,30,173.5,162.6,66,65,1,31,12,56,57,103500,1,1,2,0,-2,0,0,5,0,401,499,5,1,1.5000029
38,30,173.5,162.6,66,65,1,31,12,56,57,123500,1,1,2,0,2,0,4,6,45,402,520,6,1,0.551299
38,30,173.5,162.6,66,65,1,31,12,56,57,143500,1,2,-2,0,-2,0,4,6,45,403,558,6,1,0.6000277
38,30,173.5,162.6,66,65,1,31,12,56,57,157100,2,1,-2,0,-2,0,4,5,0,404,420,5,1,0.5687328
38,30,173.5,162.6,66,65,1,31,12,56,57,60100,2,2,-2,0,-2,0,4,5,0,405,174,5,1,0.7333996
38,30,173.5,162.6,66,65,1,31,12,56,57,58100,2,1,-2,0,2,0,0,5,0,406,171,5,1,0.8001241
38,30,173.5,162.6,66,65,1,31,12,56,57,121100,2,2,-2,0,-2,0,4,5,0,407,342,5,1,2.7165888
38,30,173.5,162.6,66,65,1,31,12,56,57,70100,2,2,2,0,-2,0,0,6,45,408,205,6,1,0.5333453
38,30,173.5,162.6,66,65,1,31,12,56,57,56100,2,2,-2,0,-2,0,4,5,0,409,162,5,1,0.5166211
38,30,173.5,162.6,66,65,1,31,12,56,57,17100,2,1,-2,0,-2,0,4,6,45,410,48,6,1,0.4833589
38,30,173.5,162.6,66,65,1,31,12,56,57,140500,1,1,-2,0,2,0,0,6,45,411,551,6,1,0.4833925
38,30,173.5,162.6,66,65,1,31,12,56,57,23100,2,2,-2,0,-2,0,4,6,45,412,66,6,1,0.450011
38,30,173.5,162.6,66,65,1,31,12,56,57,121100,2,1,2,0,-2,0,0,5,0,413,343,5,1,0.4006015
38,30,173.5,162.6,66,65,1,31,12,56,57,83100,2,1,2,0,-2,0,0,6,45,414,247,6,1,0.8182894
38,30,173.5,162.6,66,65,1,31,12,56,57,22500,1,1,-2,0,2,0,0,5,0,415,455,5,1,0.7166613
38,30,173.5,162.6,66,65,1,31,12,56,57,113100,2,2,2,0,2,0,4,5,0,416,322,5,1,3.5499655
38,30,173.5,162.6,66,65,1,31,12,56,57,132500,1,2,2,0,-2,0,0,5,0,417,541,5,1,0.3685592
38,30,173.5,162.6,66,65,1,31,12,56,57,173500,1,2,2,0,2,0,4,6,45,418,566,6,1,0.5500506
38,30,173.5,162.6,66,65,1,31,12,56,57,95100,2,1,-2,0,-2,0,4,6,45,419,272,6,1,0.5667158
38,30,173.5,162.6,66,65,1,31,12,56,57,18100,2,2,-2,0,2,0,0,5,0,420,53,5,1,0.4840674
38,30,173.5,162.6,66,65,1,31,12,56,57,48100,2,1,-2,0,2,0,0,5,0,421,147,5,1,0.3833843
38,30,173.5,162.6,66,65,1,31,12,56,57,47100,2,2,2,0,2,0,4,6,45,422,142,6,1,0.5834033
38,30,173.5,162.6,66,65,1,31,12,56,57,144100,2,1,2,0,2,0,4,6,45,423,400,6,1,0.4667334
38,30,173.5,162.6,66,65,1,31,12,56,57,45100,2,2,-2,0,-2,0,4,6,45,424,138,6,1,0.600039
38,30,173.5,162.6,66,65,1,31,12,56,57,138100,2,2,2,0,2,0,4,6,45,425,386,6,1,0.4666527
38,30,173.5,162.6,66,65,1,31,12,56,57,35100,2,1,-2,0,2,0,0,5,0,426,107,5,1,0.7000469
38,30,173.5,162.6,66,65,1,31,12,56,57,12500,1,1,-2,0,2,0,0,6,45,427,443,6,1,0.4667802
38,30,173.5,162.6,66,65,1,31,12,56,57,57100,2,2,2,0,2,0,4,6,45,428,166,6,1,0.6500319
38,30,173.5,162.6,66,65,1,31,12,56,57,63100,2,1,2,0,2,0,4,6,45,429,184,6,1,0.8842401
38,30,173.5,162.6,66,65,1,31,12,56,57,121500,1,1,-2,0,2,0,0,5,0,430,519,5,1,1.10009
38,30,173.5,162.6,66,65,1,31,12,56,57,40100,2,2,2,0,-2,0,0,6,45,431,121,6,1,0.5834554
38,30,173.5,162.6,66,65,1,31,12,56,57,69100,2,2,2,0,2,0,4,6,45,432,202,6,1,0.5167769
38,30,173.5,162.6,66,65,1,31,12,56,57,140500,1,2,2,0,-2,0,0,6,45,433,549,5,0,2.8500576
38,30,173.5,162.6,66,65,1,31,12,56,57,2100,2,2,-2,0,-2,0,4,5,0,434,6,5,1,0.5833788
38,30,173.5,162.6,66,65,1,31,12,56,57,58100,2,2,2,0,-2,0,0,5,0,435,169,5,1,0.6516331
38,30,173.5,162.6,66,65,1,31,12,56,57,92500,1,1,-2,0,-2,0,4,5,0,436,488,5,1,1.0333662
38,30,173.5,162.6,66,65,1,31,12,56,57,62100,2,1,-2,0,2,0,0,5,0,437,183,5,1,0.4667035
38,30,173.5,162.6,66,65,1,31,12,56,57,5100,2,2,-2,0,2,0,0,5,0,438,17,5,1,0.3500537
38,30,173.5,162.6,66,65,1,31,12,56,57,11100,2,2,2,0,2,0,4,6,45,439,38,6,1,0.483437
38,30,173.5,162.6,66,65,1,31,12,56,57,63500,1,1,-2,0,-2,0,4,6,45,440,476,6,1,0.5502307
38,30,173.5,162.6,66,65,1,31,12,56,57,105100,2,2,-2,0,-2,0,4,5,0,441,294,6,0,0.700077
38,30,173.5,162.6,66,65,1,31,12,56,57,143500,1,1,2,0,-2,0,0,6,45,442,559,6,1,0.7333516
38,30,173.5,162.6,66,65,1,31,12,56,57,3100,2,1,-2,0,2,0,0,5,0,443,11,5,1,0.5667076
38,30,173.5,162.6,66,65,1,31,12,56,57,125500,1,2,2,0,-2,0,0,5,0,444,525,5,1,0.6833717
38,30,173.5,162.6,66,65,1,31,12,56,57,52100,2,2,2,0,-2,0,0,6,45,445,153,6,1,3.1166752
38,30,173.5,162.6,66,65,1,31,12,56,57,30100,2,2,-2,0,2,0,0,6,45,446,89,6,1,0.5667041
38,30,173.5,162.6,66,65,1,31,12,56,57,129100,2,1,2,0,2,0,4,6,45,447,364,6,1,0.4333748
38,30,173.5,162.6,66,65,1,31,12,56,57,33500,1,2,2,0,2,0,4,6,45,448,470,6,1,0.3667118
38,30,173.5,162.6,66,65,1,31,12,56,57,105500,1,2,2,0,-2,0,0,6,45,449,505,6,1,0.5334061
38,30,173.5,162.6,66,65,1,31,12,56,57,132100,2,2,2,0,-2,0,0,6,45,450,373,6,1,0.516758
38,30,173.5,162.6,66,65,1,31,12,56,57,125100,2,2,-2,0,-2,0,4,6,45,451,354,6,1,0.5333386
38,30,173.5,162.6,66,65,1,31,12,56,57,4500,1,1,2,0,2,0,4,5,0,452,436,5,1,1.883439
38,30,173.5,162.6,66,65,1,31,12,56,57,4500,1,2,-2,0,-2,0,4,6,45,453,438,6,1,0.5166425
38,30,173.5,162.6,66,65,1,31,12,56,57,143500,1,1,2,0,2,0,4,5,0,454,556,5,1,0.5333793
38,30,173.5,162.6,66,65,1,31,12,56,57,153100,2,1,-2,0,-2,0,4,6,45,455,416,6,1,0.4833704
38,30,173.5,162.6,66,65,1,31,12,56,57,117100,2,1,-2,0,-2,0,4,5,0,456,332,5,1,0.6001478
38,30,173.5,162.6,66,65,1,31,12,56,57,131100,2,1,-2,0,-2,0,4,5,0,457,368,5,1,0.4333858
38,30,173.5,162.6,66,65,1,31,12,56,57,68100,2,2,-2,0,-2,0,4,6,45,458,198,6,1,0.7167174
38,30,173.5,162.6,66,65,1,31,12,56,57,33500,1,1,-2,0,-2,0,4,5,0,459,468,5,1,0.6167049
38,30,173.5,162.6,66,65,1,31,12,56,57,110100,2,2,2,0,-2,0,0,5,0,460,313,5,1,0.3834404
38,30,173.5,162.6,66,65,1,31,12,56,57,33100,2,1,2,0,2,0,4,6,45,461,100,6,1,0.5517676
38,30,173.5,162.6,66,65,1,31,12,56,57,68100,2,2,-2,0,2,0,0,6,45,462,197,5,0,1.3679016
38,30,173.5,162.6,66,65,1,31,12,56,57,17100,2,1,-2,0,2,0,0,5,0,463,51,5,1,0.5000564
38,30,173.5,162.6,66,65,1,31,12,56,57,9100,2,2,-2,0,2,0,0,6,45,464,29,6,1,0.5505616
38,30,173.5,162.6,66,65,1,31,12,56,57,58100,2,1,-2,0,-2,0,4,5,0,465,168,5,1,0.5167361
38,30,173.5,162.6,66,65,1,31,12,56,57,116100,2,2,-2,0,-2,0,4,6,45,466,330,5,0,0.1833764
38,30,173.5,162.6,66,65,1,31,12,56,57,108500,1,2,-2,0,2,0,0,5,0,467,509,5,1,0.4501324
38,30,173.5,162.6,66,65,1,31,12,56,57,109100,2,1,-2,0,-2,0,4,6,45,468,308,6,1,0.483382
38,30,173.5,162.6,66,65,1,31,12,56,57,136100,2,2,2,0,-2,0,0,5,0,469,381,5,1,0.5167247
38,30,173.5,162.6,66,65,1,31,12,56,57,7100,2,2,2,0,-2,0,0,6,45,470,21,6,1,0.5499705
38,30,173.5,162.6,66,65,1,31,12,56,57,84100,2,1,-2,0,2,0,0,6,45,471,251,6,1,0.3833907
38,30,173.5,162.6,66,65,1,31,12,56,57,20100,2,1,-2,0,-2,0,4,6,45,472,56,5,0,0.4000326
38,30,173.5,162.6,66,65,1,31,12,56,57,21500,1,2,-2,0,-2,0,4,6,45,473,450,6,1,0.6518104
38,30,173.5,162.6,66,65,1,31,12,56,57,26500,1,2,2,0,2,0,4,6,45,474,458,6,1,0.3833568
38,30,173.5,162.6,66,65,1,31,12,56,57,98100,2,2,-2,0,-2,0,4,5,0,475,282,5,1,0.4667584
38,30,173.5,162.6,66,65,1,31,12,56,57,47100,2,2,2,0,-2,0,0,5,0,476,141,5,1,0.483451
38,30,173.5,162.6,66,65,1,31,12,56,57,73100,2,1,-2,0,2,0,0,5,0,477,219,5,1,0.4833807
38,30,173.5,162.6,66,65,1,31,12,56,57,153100,2,2,2,0,2,0,4,6,45,478,418,6,1,0.4667435
38,30,173.5,162.6,66,65,1,31,12,56,57,29500,1,2,-2,0,2,0,0,5,0,479,461,5,1,0.4834208
38,30,173.5,162.6,66,65,1,31,12,56,57,86100,2,1,-2,0,2,0,0,5,0,480,255,5,1,0.3833434
38,30,173.5,162.6,66,65,1,31,12,56,57,26100,2,1,-2,0,2,0,0,6,45,481,75,6,1,0.4851925
38,30,173.5,162.6,66,65,1,31,12,56,57,11100,2,2,2,0,-2,0,0,6,45,482,37,6,1,0.5000538
38,30,173.5,162.6,66,65,1,31,12,56,57,43100,2,1,-2,0,2,0,0,6,45,483,135,6,1,0.7834589
38,30,173.5,162.6,66,65,1,31,12,56,57,158100,2,1,2,0,2,0,4,6,45,484,424,6,1,0.5167168
38,30,173.5,162.6,66,65,1,31,12,56,57,142100,2,2,2,0,-2,0,0,6,45,485,393,5,0,0.6000657
38,30,173.5,162.6,66,65,1,31,12,56,57,79100,2,2,-2,0,2,0,0,5,0,486,233,5,1,0.5500583
38,30,173.5,162.6,66,65,1,31,12,56,57,91100,2,1,-2,0,-2,0,4,6,45,487,260,6,1,2.3666407
38,30,173.5,162.6,66,65,1,31,12,56,57,29500,1,1,2,0,-2,0,0,6,45,488,463,6,1,0.5334679
38,30,173.5,162.6,66,65,1,31,12,56,57,134100,2,1,2,0,-2,0,0,6,45,489,379,6,1,0.4834766
38,30,173.5,162.6,66,65,1,31,12,56,57,140500,1,2,2,0,2,0,4,6,45,490,550,6,1,0.4334041
38,30,173.5,162.6,66,65,1,31,12,56,57,76100,2,2,2,0,2,0,4,6,45,491,226,6,1,0.4167931
38,30,173.5,162.6,66,65,1,31,12,56,57,32100,2,1,-2,0,2,0,0,6,45,492,99,6,1,0.4834592
38,30,173.5,162.6,66,65,1,31,12,56,57,128500,1,2,2,0,-2,0,0,6,45,493,529,6,1,0.4351641
38,30,173.5,162.6,66,65,1,31,12,56,57,63500,1,1,-2,0,2,0,0,5,0,494,479,5,1,0.500119
38,30,173.5,162.6,66,65,1,31,12,56,57,58100,2,2,2,0,2,0,4,5,0,495,170,5,1,0.434325
38,30,173.5,162.6,66,65,1,31,12,56,57,173500,1,1,-2,0,2,0,0,6,45,496,567,6,1,0.4501354
38,30,173.5,162.6,66,65,1,31,12,56,57,40100,2,2,2,0,2,0,4,6,45,497,122,6,1,0.3837502
38,30,173.5,162.6,66,65,1,31,12,56,57,158100,2,2,-2,0,-2,0,4,5,0,498,426,5,1,0.5667949
38,30,173.5,162.6,66,65,1,31,12,56,57,143500,1,2,-2,0,2,0,0,5,0,499,557,5,1,0.4668085
38,30,173.5,162.6,66,65,1,31,12,56,57,33100,2,2,-2,0,-2,0,4,6,45,500,102,6,1,0.5167009
38,30,173.5,162.6,66,65,1,31,12,56,57,101100,2,2,2,0,2,0,4,5,0,501,290,5,1,0.516765
38,30,173.5,162.6,66,65,1,31,12,56,57,16100,2,1,-2,0,-2,0,4,5,0,502,44,5,1,0.466774
38,30,173.5,162.6,66,65,1,31,12,56,57,103500,1,1,2,0,2,0,4,6,45,503,496,6,1,0.4834721
38,30,173.5,162.6,66,65,1,31,12,56,57,61100,2,1,-2,0,2,0,0,5,0,504,179,5,1,0.5500971
38,30,173.5,162.6,66,65,1,31,12,56,57,132100,2,2,2,0,2,0,4,5,0,505,374,5,1,0.5843545
38,30,173.5,162.6,66,65,1,31,12,56,57,81100,2,2,2,0,2,0,4,6,45,506,242,6,1,0.5000297
38,30,173.5,162.6,66,65,1,31,12,56,57,9100,2,1,2,0,2,0,4,5,0,507,28,5,1,0.78367
38,30,173.5,162.6,66,65,1,31,12,56,57,96100,2,1,-2,0,2,0,0,5,0,508,279,5,1,0.5000331
38,30,173.5,162.6,66,65,1,31,12,56,57,71100,2,2,-2,0,2,0,0,6,45,509,209,6,1,0.5167844
38,30,173.5,162.6,66,65,1,31,12,56,57,130500,1,1,2,0,-2,0,0,5,0,510,535,5,1,0.5500191
38,30,173.5,162.6,66,65,1,31,12,56,57,31500,1,1,-2,0,2,0,0,5,0,511,467,5,1,0.4333927
38,30,173.5,162.6,66,65,1,31,12,56,57,61100,2,1,-2,0,-2,0,4,5,0,512,176,5,1,0.4333803
38,30,173.5,162.6,66,65,1,31,12,56,57,150100,2,1,-2,0,2,0,0,6,45,513,411,6,1,0.4499868
38,30,173.5,162.6,66,65,1,31,12,56,57,66100,2,2,2,0,2,0,4,6,45,514,194,6,1,0.4333986
38,30,173.5,162.6,66,65,1,31,12,56,57,43100,2,2,2,0,2,0,4,6,45,515,134,6,1,0.3833355
38,30,173.5,162.6,66,65,1,31,12,56,57,108100,2,1,2,0,-2,0,0,6,45,516,307,6,1,0.5668029
38,30,173.5,162.6,66,65,1,31,12,56,57,42100,2,1,-2,0,-2,0,4,5,0,517,128,5,1,0.43347
38,30,173.5,162.6,66,65,1,31,12,56,57,127100,2,1,-2,0,2,0,0,5,0,518,363,5,1,0.4166945
38,30,173.5,162.6,66,65,1,31,12,56,57,22500,1,2,2,0,2,0,4,5,0,519,454,5,1,0.3499912
38,30,173.5,162.6,66,65,1,31,12,56,57,41500,1,2,-2,0,2,0,0,6,45,520,473,6,1,0.4500836
38,30,173.5,162.6,66,65,1,31,12,56,57,13100,2,1,2,0,2,0,4,5,0,521,40,5,1,0.5168045
38,30,173.5,162.6,66,65,1,31,12,56,57,121500,1,2,2,0,-2,0,0,6,45,522,517,6,1,0.5334674
38,30,173.5,162.6,66,65,1,31,12,56,57,4100,2,2,2,0,-2,0,0,5,0,523,13,5,1,0.5499765
38,30,173.5,162.6,66,65,1,31,12,56,57,105500,1,1,-2,0,-2,0,4,5,0,524,504,5,1,0.4333786
38,30,173.5,162.6,66,65,1,31,12,56,57,83100,2,2,-2,0,-2,0,4,5,0,525,246,5,1,0.5667406
38,30,173.5,162.6,66,65,1,31,12,56,57,35100,2,2,2,0,2,0,4,6,45,526,106,6,1,0.5678304
38,30,173.5,162.6,66,65,1,31,12,56,57,141100,2,1,2,0,-2,0,0,5,0,527,391,5,1,0.6334002
38,30,173.5,162.6,66,65,1,31,12,56,57,91100,2,1,-2,0,2,0,0,6,45,528,263,5,0,0.9333561
38,30,173.5,162.6,66,65,1,31,12,56,57,42100,2,2,2,0,-2,0,0,5,0,529,129,5,1,0.4001294
38,30,173.5,162.6,66,65,1,31,12,56,57,18100,2,2,-2,0,-2,0,4,5,0,530,54,5,1,0.5167821
38,30,173.5,162.6,66,65,1,31,12,56,57,2100,2,2,-2,0,2,0,0,6,45,531,5,6,1,0.4000336
38,30,173.5,162.6,66,65,1,31,12,56,57,132500,1,2,2,0,2,0,4,5,0,532,542,5,1,0.433469
38,30,173.5,162.6,66,65,1,31,12,56,57,172500,1,2,2,0,2,0,4,5,0,533,562,5,1,0.4000427
38,30,173.5,162.6,66,65,1,31,12,56,57,1100,2,1,-2,0,2,0,0,5,0,534,3,5,1,0.3833642
38,30,173.5,162.6,66,65,1,31,12,56,57,48100,2,1,-2,0,-2,0,4,6,45,535,144,6,1,0.53341
38,30,173.5,162.6,66,65,1,31,12,56,57,62100,2,2,2,0,2,0,4,6,45,536,182,6,1,0.5167307
38,30,173.5,162.6,66,65,1,31,12,56,57,121500,1,2,2,0,2,0,4,6,45,537,518,6,1,0.6173589
38,30,173.5,162.6,66,65,1,31,12,56,57,69100,2,2,2,0,-2,0,0,6,45,538,201,6,1,0.9501083
38,30,173.5,162.6,66,65,1,31,12,56,57,76100,2,2,2,0,-2,0,0,6,45,539,225,6,1,0.7000431
38,30,173.5,162.6,66,65,1,31,12,56,57,31100,2,2,2,0,-2,0,0,6,45,540,93,6,1,1.4000279
38,30,173.5,162.6,66,65,1,31,12,56,57,87100,2,1,2,0,-2,0,0,6,45,541,259,6,1,0.6334034
38,30,173.5,162.6,66,65,1,31,12,56,57,131500,1,1,-2,0,-2,0,4,6,45,542,536,6,1,0.4667301
38,30,173.5,162.6,66,65,1,31,12,56,57,117100,2,2,2,0,2,0,4,5,0,543,334,5,1,0.500039
38,30,173.5,162.6,66,65,1,31,12,56,57,16100,2,2,2,0,2,0,4,6,45,544,46,5,0,0.4333871
38,30,173.5,162.6,66,65,1,31,12,56,57,70100,2,1,-2,0,-2,0,4,5,0,545,204,5,1,0.5333958
38,30,173.5,162.6,66,65,1,31,12,56,57,4100,2,1,-2,0,2,0,0,6,45,546,15,6,1,0.5347387
38,30,173.5,162.6,66,65,1,31,12,56,57,61100,2,2,2,0,-2,0,0,5,0,547,177,5,1,0.6833639
38,30,173.5,162.6,66,65,1,31,12,56,57,72100,2,2,2,0,-2,0,0,6,45,548,213,6,1,0.5666778
38,30,173.5,162.6,66,65,1,31,12,56,57,95100,2,2,2,0,-2,0,0,5,0,549,273,5,1,1.9166921
38,30,173.5,162.6,66,65,1,31,12,56,57,10100,2,2,2,0,2,0,4,6,45,550,34,6,1,0.5333146
38,30,173.5,162.6,66,65,1,31,12,56,57,101500,1,2,2,0,2,0,4,5,0,551,494,5,1,0.6333919
38,30,173.5,162.6,66,65,1,31,12,56,57,138100,2,1,-2,0,-2,0,4,6,45,552,384,6,1,0.5167133
38,30,173.5,162.6,66,65,1,31,12,56,57,109100,2,1,-2,0,2,0,0,5,0,553,311,5,1,0.5500489
38,30,173.5,162.6,66,65,1,31,12,56,57,115100,2,2,2,0,2,0,4,5,0,554,326,5,1,0.4680248
38,30,173.5,162.6,66,65,1,31,12,56,57,138500,1,1,2,0,-2,0,0,5,0,555,547,5,1,0.533456
38,30,173.5,162.6,66,65,1,31,12,56,57,68100,2,1,2,0,-2,0,0,5,0,556,199,5,1,0.5333943
38,30,173.5,162.6,66,65,1,31,12,56,57,81100,2,2,2,0,-2,0,0,5,0,557,241,5,1,0.4167056
38,30,173.5,162.6,66,65,1,31,12,56,57,18500,1,1,-2,0,-2,0,4,5,0,558,444,5,1,0.4333914
38,30,173.5,162.6,66,65,1,31,12,56,57,16100,2,1,-2,0,2,0,0,6,45,559,47,6,1,0.466637
38,30,173.5,162.6,66,65,1,31,12,56,57,132500,1,1,-2,0,-2,0,4,5,0,560,540,5,1,0.4167354
38,30,173.5,162.6,66,65,1,31,12,56,57,103500,1,2,-2,0,-2,0,4,5,0,561,498,5,1,0.4166274
38,30,173.5,162.6,66,65,1,31,12,56,57,130500,1,2,-2,0,-2,0,4,6,45,562,534,6,1,0.4834767
38,30,173.5,162.6,66,65,1,31,12,56,57,18500,1,1,-2,0,2,0,0,5,0,563,447,5,1,0.4000516
38,30,173.5,162.6,66,65,1,31,12,56,57,128500,1,2,2,0,2,0,4,6,45,564,530,6,1,0.516727
38,30,173.5,162.6,66,65,1,31,12,56,57,26500,1,1,-2,0,2,0,0,5,0,565,459,5,1,0.5666713
38,30,173.5,162.6,66,65,1,31,12,56,57,125100,2,1,2,0,2,0,4,6,45,566,352,6,1,0.4001379
38,30,173.5,162.6,66,65,1,31,12,56,57,18500,1,2,2,0,2,0,4,6,45,567,446,6,1,0.4667392
39,30,181.35,162.7,116,82.5,1,38,17,40,36,43100,2,2,2,0,-2,0,0,5,45,0,133,5,1,1.9833004
39,30,181.35,162.7,116,82.5,1,38,17,40,36,22500,1,2,2,0,2,0,4,5,45,1,454,5,1,0.8000355
39,30,181.35,162.7,116,82.5,1,38,17,40,36,32100,2,2,-2,0,2,0,0,6,0,2,97,6,1,2.0833336
39,30,181.35,162.7,116,82.5,1,38,17,40,36,4100,2,2,2,0,2,0,4,6,0,3,14,6,1,1.216639
39,30,181.35,162.7,116,82.5,1,38,17,40,36,146100,2,2,2,0,2,0,4,5,45,4,406,5,1,0.9834479
39,30,181.35,162.7,116,82.5,1,38,17,40,36,81100,2,2,-2,0,-2,0,4,5,45,5,242,5,1,0.7001892
39,30,181.35,162.7,116,82.5,1,38,17,40,36,5100,2,2,-2,0,-2,0,4,6,0,6,18,6,1,1.3167652
39,30,181.35,162.7,116,82.5,1,38,17,40,36,68500,1,2,-2,0,2,0,0,6,0,7,481,6,1,2.2167406
39,30,181.35,162.7,116,82.5,1,38,17,40,36,105500,1,1,2,0,-2,0,0,5,45,8,507,5,1,1.1167682
39,30,181.35,162.7,116,82.5,1,38,17,40,36,75100,2,2,2,0,-2,0,0,6,0,9,221,6,1,0.9333775
39,30,181.35,162.7,116,82.5,1,38,17,40,36,70100,2,1,-2,0,2,0,0,6,0,10,207,6,1,1.2834277
39,30,181.35,162.7,116,82.5,1,38,17,40,36,33500,1,2,-2,0,2,0,0,6,0,11,469,6,1,1.0167642
39,30,181.35,162.7,116,82.5,1,38,17,40,36,56100,2,2,-2,0,2,0,0,5,45,12,161,5,1,1.4503856
39,30,181.35,162.7,116,82.5,1,38,17,40,36,11100,2,2,2,0,2,0,4,5,45,13,38,5,1,0.7667878
39,30,181.35,162.7,116,82.5,1,38,17,40,36,65100,2,1,-2,0,-2,0,4,5,45,14,188,5,1,1.0834195
39,30,181.35,162.7,116,82.5,1,38,17,40,36,94100,2,2,2,0,-2,0,0,6,0,15,269,6,1,1.2000192
39,30,181.35,162.7,116,82.5,1,38,17,40,36,60100,2,1,-2,0,-2,0,4,5,45,16,172,5,1,0.8853117
